date,time,subject,group,trialcode,trial.choice.response,trial.choice.correct,values.switch,values.subopt,values.trial_num,trial.choice.latency,expressions.mean_rt,values.rt,picture.switch.currentitem,picture.foodtype.currentitem,picture.choice1.currentitem,picture.choice2.currentitem,picture.choice3.currentitem,picture.choice4.currentitem,picture.choice5.currentitem,picture.choice6.currentitem,script.elapsedtime
21020,13:56:24,9951,805521578,choice,choice4,0,0,1,1,15900,15901,15901,RM8.png,cereal_t.png,BC11.png,BC3.png,BC2.png,BC12.png,BC8.png,BC1.png,261337
21020,13:56:24,9951,805521578,switch,choice4,0,1,1,1,15900,15901,15901,BC11.png,cereal_t.png,BC11.png,BC3.png,BC2.png,BC12.png,BC8.png,BC1.png,267814
21020,13:56:24,9951,805521578,choice,choice4,0,1,1,2,6821,11361.5,22723,BC11.png,sand_t.png,SW7.png,SW9.png,SW8.png,SW6.png,SW1.png,SW11.png,275267
21020,13:56:24,9951,805521578,switch,choice4,0,1,1,2,6821,11361.5,22723,SW7.png,sand_t.png,SW7.png,SW9.png,SW8.png,SW6.png,SW1.png,SW11.png,279794
21020,13:56:24,9951,805521578,choice,choice1,1,1,0,3,13047,11923.66667,35771,SW7.png,soup_t.png,S9.png,S12.png,S5.png,S13.png,S3.png,S7.png,293448
21020,13:56:24,9951,805521578,choice,choice1,1,1,0,4,12779,12137.75,48551,SW7.png,yog_t.png,Y8.png,Y1.png,Y3.png,Y12.png,Y10.png,Y2.png,306834
21020,13:56:24,9951,805521578,choice,choice1,1,1,0,5,19361,13582.6,67913,SW7.png,soup_t.png,S9.png,S12.png,S5.png,S3.png,S6.png,S13.png,326801
21020,13:56:24,9951,805521578,choice,choice1,1,1,0,6,8600,12752.33333,76514,SW7.png,yog_t.png,Y6.png,Y13.png,Y12.png,Y10.png,Y2.png,Y3.png,336001
21020,13:56:24,9951,805521578,choice,choice4,0,1,1,7,12787,12757.42857,89302,SW7.png,sand_t.png,SW7.png,SW9.png,SW3.png,SW6.png,SW1.png,SW10.png,349411
21020,13:56:24,9951,805521578,switch,choice4,0,1,1,7,12787,12757.42857,89302,SW7.png,sand_t.png,SW7.png,SW9.png,SW3.png,SW6.png,SW1.png,SW10.png,351815
21020,13:56:24,9951,805521578,choice,choice2,0,1,1,8,6151,11931.75,95454,SW7.png,crisps_t.png,C3.png,C10.png,C4.png,C6.png,C2.png,C7.png,358609
21020,13:56:24,9951,805521578,switch,choice2,0,1,1,8,6151,11931.75,95454,C3.png,crisps_t.png,C3.png,C10.png,C4.png,C6.png,C2.png,C7.png,362065
21020,13:56:24,9951,805521578,choice,choice4,0,1,1,9,5598,11228.11111,101053,C3.png,sand_t.png,SW7.png,SW9.png,SW4.png,SW6.png,SW3.png,SW5.png,368261
21020,13:56:24,9951,805521578,switch,choice4,0,1,1,9,5598,11228.11111,101053,SW7.png,sand_t.png,SW7.png,SW9.png,SW4.png,SW6.png,SW3.png,SW5.png,370896
21020,13:56:24,9951,805521578,choice,choice2,0,1,1,10,6316,10737,107370,SW7.png,sand_t.png,SW7.png,SW11.png,SW10.png,SW6.png,SW1.png,SW8.png,377804
21020,13:56:24,9951,805521578,switch,choice2,0,1,1,10,6316,10737,107370,SW7.png,sand_t.png,SW7.png,SW11.png,SW10.png,SW6.png,SW1.png,SW8.png,388494
21020,13:56:24,9951,805521578,choice,choice6,0,1,1,11,15080,11131.90909,122451,SW7.png,sand_t.png,SW7.png,SW9.png,SW4.png,SW6.png,SW8.png,SW11.png,404199
21020,13:56:24,9951,805521578,switch,choice6,0,0,1,11,15080,11131.90909,122451,SW7.png,sand_t.png,SW7.png,SW9.png,SW4.png,SW6.png,SW8.png,SW11.png,406701
21020,13:56:24,9951,805521578,choice,choice1,1,0,0,12,4058,10542.5,126510,SW7.png,yog_t.png,Y8.png,Y12.png,Y2.png,Y11.png,Y10.png,Y3.png,411358
21020,13:56:24,9951,805521578,choice,choice4,0,0,1,13,2891,9954,129402,SW7.png,cereal_t.png,BC6.png,BC9.png,BC12.png,BC2.png,BC5.png,BC8.png,414869
21020,13:56:24,9951,805521578,switch,choice4,0,0,1,13,2891,9954,129402,BC6.png,cereal_t.png,BC6.png,BC9.png,BC12.png,BC2.png,BC5.png,BC8.png,417879
21020,13:56:24,9951,805521578,choice,choice6,0,0,1,14,5270,9619.5,134673,BC6.png,ready_t.png,RM9.png,RM4.png,RM12.png,RM5.png,RM13.png,RM8.png,423758
21020,13:56:24,9951,805521578,switch,choice6,0,1,1,14,5270,9619.5,134673,RM9.png,ready_t.png,RM9.png,RM4.png,RM12.png,RM5.png,RM13.png,RM8.png,426309
21020,13:56:24,9951,805521578,choice,choice1,1,1,0,15,9731,9627,144405,RM9.png,soup_t.png,S9.png,S12.png,S6.png,S1.png,S4.png,S3.png,436627
21020,13:56:24,9951,805521578,breaktime,choice1,1,1,0,15,9731,9627,144405,RM9.png,soup_t.png,S9.png,S12.png,S6.png,S1.png,S4.png,S3.png,438920
21020,13:56:24,9951,805521578,choice,choice4,0,1,1,16,7761,9510.4375,152167,RM9.png,yog_t.png,Y9.png,Y1.png,Y10.png,Y12.png,Y2.png,Y3.png,447277
21020,13:56:24,9951,805521578,switch,choice4,0,1,1,16,7761,9510.4375,152167,Y9.png,yog_t.png,Y9.png,Y1.png,Y10.png,Y12.png,Y2.png,Y3.png,454660
21020,13:56:24,9951,805521578,choice,choice2,0,1,1,17,12251,9671.705882,164419,Y9.png,yog_t.png,Y8.png,Y4.png,Y3.png,Y2.png,Y10.png,Y11.png,467500
21020,13:56:24,9951,805521578,switch,choice2,0,1,1,17,12251,9671.705882,164419,Y8.png,yog_t.png,Y8.png,Y4.png,Y3.png,Y2.png,Y10.png,Y11.png,469421
21020,13:56:24,9951,805521578,choice,choice2,0,1,1,18,2420,9268.888889,166840,Y8.png,soup_t.png,S9.png,S12.png,S13.png,S7.png,S3.png,S4.png,472436
21020,13:56:24,9951,805521578,switch,choice2,0,0,1,18,2420,9268.888889,166840,S9.png,soup_t.png,S9.png,S12.png,S13.png,S7.png,S3.png,S4.png,476676
21020,13:56:24,9951,805521578,choice,choice1,1,0,0,19,16784,9664.473684,183625,S9.png,ready_t.png,RM3.png,RM11.png,RM1.png,RM5.png,RM13.png,RM2.png,494061
21020,13:56:24,9951,805521578,choice,choice6,0,0,1,20,4820,9422.3,188446,S9.png,cereal_t.png,BC11.png,BC3.png,BC2.png,BC9.png,BC8.png,BC1.png,499477
21020,13:56:24,9951,805521578,switch,choice6,0,0,1,20,4820,9422.3,188446,BC11.png,cereal_t.png,BC11.png,BC3.png,BC2.png,BC9.png,BC8.png,BC1.png,502898
21020,13:56:24,9951,805521578,choice,choice5,0,0,1,21,3140,9123.190476,191587,BC11.png,cereal_t.png,BC5.png,BC1.png,BC3.png,BC2.png,BC8.png,BC9.png,506621
21020,13:56:24,9951,805521578,switch,choice5,0,0,1,21,3140,9123.190476,191587,BC5.png,cereal_t.png,BC5.png,BC1.png,BC3.png,BC2.png,BC8.png,BC9.png,510106
21020,13:56:24,9951,805521578,choice,choice3,0,0,1,22,6154,8988.272727,197742,BC5.png,cereal_t.png,BC4.png,BC1.png,BC12.png,BC2.png,BC8.png,BC5.png,516844
21020,13:56:24,9951,805521578,switch,choice3,0,1,1,22,6154,8988.272727,197742,BC4.png,cereal_t.png,BC4.png,BC1.png,BC12.png,BC2.png,BC8.png,BC5.png,518675
21020,13:56:24,9951,805521578,choice,choice1,1,1,0,23,11186,9083.869565,208929,BC4.png,soup_t.png,S9.png,S5.png,S6.png,S10.png,S13.png,S3.png,530468
21020,13:56:24,9951,805521578,choice,choice1,1,1,0,24,4636,8898.583333,213566,BC4.png,ready_t.png,RM8.png,RM11.png,RM1.png,RM5.png,RM13.png,RM2.png,535688
21020,13:56:24,9951,805521578,choice,choice2,0,1,1,25,6113,8787.2,219680,BC4.png,crisps_t.png,C5.png,C10.png,C8.png,C9.png,C2.png,C6.png,542393
21020,13:56:24,9951,805521578,switch,choice2,0,1,1,25,6113,8787.2,219680,C5.png,crisps_t.png,C5.png,C10.png,C8.png,C9.png,C2.png,C6.png,546353
21020,13:56:24,9951,805521578,choice,choice2,0,1,1,26,8992,8795.115385,228673,C5.png,crisps_t.png,C3.png,C5.png,C7.png,C2.png,C11.png,C12.png,555945
21020,13:56:24,9951,805521578,switch,choice2,0,1,1,26,8992,8795.115385,228673,C3.png,crisps_t.png,C3.png,C5.png,C7.png,C2.png,C11.png,C12.png,557856
21020,13:56:24,9951,805521578,choice,choice4,0,1,1,27,1965,8542.185185,230639,C3.png,crisps_t.png,C3.png,C10.png,C4.png,C2.png,C9.png,C6.png,560405
21020,13:56:24,9951,805521578,switch,choice4,0,1,1,27,1965,8542.185185,230639,C3.png,crisps_t.png,C3.png,C10.png,C4.png,C2.png,C9.png,C6.png,562111
21020,13:56:24,9951,805521578,choice,choice1,1,1,0,28,3433,8359.75,234073,C3.png,yog_t.png,Y8.png,Y1.png,Y3.png,Y12.png,Y10.png,Y2.png,566136
21020,13:56:24,9951,805521578,choice,choice5,0,1,1,29,15634,8610.62069,249708,C3.png,crisps_t.png,C3.png,C10.png,C4.png,C6.png,C2.png,C7.png,582365
21020,13:56:24,9951,805521578,switch,choice5,0,1,1,29,15634,8610.62069,249708,C3.png,crisps_t.png,C3.png,C10.png,C4.png,C6.png,C2.png,C7.png,584349
21020,13:56:24,9951,805521578,choice,choice3,0,1,1,30,1963,8389.066667,251672,C3.png,cereal_t.png,BC6.png,BC9.png,BC12.png,BC2.png,BC5.png,BC8.png,586908
21020,13:56:24,9951,805521578,switch,choice3,0,1,1,30,1963,8389.066667,251672,BC6.png,cereal_t.png,BC6.png,BC9.png,BC12.png,BC2.png,BC5.png,BC8.png,589379
21020,15:04:43,8723,463986642,choice,choice1,1,0,0,1,12539,12540,12540,RM8.png,yog_t.png,Y9.png,Y1.png,Y10.png,Y12.png,Y2.png,Y3.png,56537
21020,15:04:43,8723,463986642,choice,choice2,0,0,1,2,11111,11826,23652,RM8.png,ready_t.png,RM7.png,RM11.png,RM1.png,RM5.png,RM13.png,RM2.png,68209
21020,15:04:43,8723,463986642,switch,choice2,0,1,1,2,11111,11826,23652,RM7.png,ready_t.png,RM7.png,RM11.png,RM1.png,RM5.png,RM13.png,RM2.png,74628
21020,15:04:43,8723,463986642,choice,choice2,0,1,1,3,5661,9771.333333,29314,RM7.png,cereal_t.png,BC11.png,BC3.png,BC2.png,BC12.png,BC8.png,BC1.png,80842
21020,15:04:43,8723,463986642,switch,choice2,0,0,1,3,5661,9771.333333,29314,BC11.png,cereal_t.png,BC11.png,BC3.png,BC2.png,BC12.png,BC8.png,BC1.png,83074
21020,15:04:43,8723,463986642,choice,choice2,0,0,1,4,15205,11130,44520,BC11.png,soup_t.png,S9.png,S5.png,S6.png,S10.png,S13.png,S3.png,98837
21020,15:04:43,8723,463986642,switch,choice2,0,0,1,4,15205,11130,44520,S9.png,soup_t.png,S9.png,S5.png,S6.png,S10.png,S13.png,S3.png,101162
21020,15:04:43,8723,463986642,choice,choice1,1,0,0,5,4109,9726,48630,S9.png,yog_t.png,Y8.png,Y1.png,Y3.png,Y12.png,Y10.png,Y2.png,105824
21020,15:04:43,8723,463986642,choice,choice2,0,0,1,6,5610,9040.166667,54241,S9.png,crisps_t.png,C3.png,C5.png,C7.png,C2.png,C11.png,C12.png,111992
21020,15:04:43,8723,463986642,switch,choice2,0,0,1,6,5610,9040.166667,54241,C3.png,crisps_t.png,C3.png,C5.png,C7.png,C2.png,C11.png,C12.png,114727
21020,15:04:43,8723,463986642,choice,choice3,0,0,1,7,14932,9882,69174,C3.png,crisps_t.png,C3.png,C7.png,C4.png,C12.png,C6.png,C9.png,130214
21020,15:04:43,8723,463986642,switch,choice3,0,0,1,7,14932,9882,69174,C3.png,crisps_t.png,C3.png,C7.png,C4.png,C12.png,C6.png,C9.png,134921
21020,15:04:43,8723,463986642,choice,choice4,0,0,1,8,10792,9995.875,79967,C3.png,sand_t.png,SW7.png,SW9.png,SW8.png,SW6.png,SW1.png,SW11.png,146274
21020,15:04:43,8723,463986642,switch,choice4,0,0,1,8,10792,9995.875,79967,SW7.png,sand_t.png,SW7.png,SW9.png,SW8.png,SW6.png,SW1.png,SW11.png,148815
21020,15:04:43,8723,463986642,choice,choice2,0,0,1,9,3411,9264.333333,83379,SW7.png,cereal_t.png,BC11.png,BC3.png,BC2.png,BC9.png,BC8.png,BC1.png,152777
21020,15:04:43,8723,463986642,switch,choice2,0,0,1,9,3411,9264.333333,83379,BC11.png,cereal_t.png,BC11.png,BC3.png,BC2.png,BC9.png,BC8.png,BC1.png,154588
21020,15:04:43,8723,463986642,choice,choice3,0,0,1,10,19050,10243,102430,BC11.png,soup_t.png,S9.png,S12.png,S5.png,S13.png,S3.png,S7.png,174199
21020,15:04:43,8723,463986642,switch,choice3,0,0,1,10,19050,10243,102430,S9.png,soup_t.png,S9.png,S12.png,S5.png,S13.png,S3.png,S7.png,179097
21020,15:04:43,8723,463986642,choice,choice3,0,0,1,11,14713,10649.45455,117144,S9.png,crisps_t.png,C3.png,C10.png,C4.png,C6.png,C2.png,C7.png,194362
21020,15:04:43,8723,463986642,switch,choice3,0,1,1,11,14713,10649.45455,117144,C3.png,crisps_t.png,C3.png,C10.png,C4.png,C6.png,C2.png,C7.png,197196
21020,15:04:43,8723,463986642,choice,choice4,0,1,1,12,6118,10271.91667,123263,C3.png,sand_t.png,SW7.png,SW9.png,SW4.png,SW6.png,SW8.png,SW11.png,203867
21020,15:04:43,8723,463986642,switch,choice4,0,0,1,12,6118,10271.91667,123263,SW7.png,sand_t.png,SW7.png,SW9.png,SW4.png,SW6.png,SW8.png,SW11.png,205466
21020,15:04:43,8723,463986642,choice,choice3,0,0,1,13,4539,9831,127803,SW7.png,soup_t.png,S9.png,S12.png,S5.png,S3.png,S6.png,S13.png,210555
21020,15:04:43,8723,463986642,switch,choice3,0,1,1,13,4539,9831,127803,S9.png,soup_t.png,S9.png,S12.png,S5.png,S3.png,S6.png,S13.png,212683
21020,15:04:43,8723,463986642,choice,choice3,0,1,1,14,6578,9598.714286,134382,S9.png,crisps_t.png,C3.png,C10.png,C4.png,C2.png,C9.png,C6.png,219811
21020,15:04:43,8723,463986642,switch,choice3,0,0,1,14,6578,9598.714286,134382,C3.png,crisps_t.png,C3.png,C10.png,C4.png,C2.png,C9.png,C6.png,223556
21020,15:04:43,8723,463986642,choice,choice3,0,0,1,15,11212,9706.333333,145595,C3.png,soup_t.png,S9.png,S12.png,S13.png,S7.png,S3.png,S4.png,235328
21020,15:04:43,8723,463986642,switch,choice3,0,0,1,15,11212,9706.333333,145595,S9.png,soup_t.png,S9.png,S12.png,S13.png,S7.png,S3.png,S4.png,238517
21020,15:04:43,8723,463986642,breaktime,choice3,0,0,1,15,11212,9706.333333,145595,S9.png,soup_t.png,S9.png,S12.png,S13.png,S7.png,S3.png,S4.png,240381
21020,15:04:43,8723,463986642,choice,choice4,0,0,1,16,2238,9239.625,147834,S9.png,cereal_t.png,BC4.png,BC1.png,BC12.png,BC2.png,BC8.png,BC5.png,243171
21020,15:04:43,8723,463986642,switch,choice4,0,0,1,16,2238,9239.625,147834,BC4.png,cereal_t.png,BC4.png,BC1.png,BC12.png,BC2.png,BC8.png,BC5.png,244685
21020,15:04:43,8723,463986642,choice,choice1,1,0,0,17,6273,9065.176471,154108,BC4.png,yog_t.png,Y8.png,Y12.png,Y2.png,Y11.png,Y10.png,Y3.png,251506
21020,15:04:43,8723,463986642,choice,choice1,1,0,0,18,3268,8743.166667,157377,BC4.png,yog_t.png,Y8.png,Y4.png,Y3.png,Y2.png,Y10.png,Y11.png,255334
21020,15:04:43,8723,463986642,choice,choice1,1,0,0,19,6369,8618.263158,163747,BC4.png,soup_t.png,S9.png,S12.png,S6.png,S1.png,S4.png,S3.png,262252
21020,15:04:43,8723,463986642,choice,choice1,1,0,0,20,3733,8374.05,167481,BC4.png,ready_t.png,RM9.png,RM4.png,RM12.png,RM5.png,RM13.png,RM8.png,266533
21020,15:04:43,8723,463986642,choice,choice1,1,0,0,21,14057,8644.714286,181539,BC4.png,crisps_t.png,C5.png,C10.png,C8.png,C9.png,C2.png,C6.png,281140
21020,15:04:43,8723,463986642,choice,choice4,0,0,1,22,3704,8420.181818,185244,BC4.png,cereal_t.png,BC6.png,BC9.png,BC12.png,BC2.png,BC5.png,BC8.png,285404
21020,15:04:43,8723,463986642,switch,choice4,0,1,1,22,3704,8420.181818,185244,BC6.png,cereal_t.png,BC6.png,BC9.png,BC12.png,BC2.png,BC5.png,BC8.png,289899
21020,15:04:43,8723,463986642,choice,choice3,0,1,1,23,4186,8236.130435,189431,BC6.png,cereal_t.png,BC5.png,BC1.png,BC3.png,BC2.png,BC8.png,BC9.png,294636
21020,15:04:43,8723,463986642,switch,choice3,0,0,1,23,4186,8236.130435,189431,BC5.png,cereal_t.png,BC5.png,BC1.png,BC3.png,BC2.png,BC8.png,BC9.png,296240
21020,15:04:43,8723,463986642,choice,choice4,0,0,1,24,5587,8125.791667,195019,BC5.png,sand_t.png,SW7.png,SW11.png,SW10.png,SW6.png,SW1.png,SW8.png,302387
21020,15:04:43,8723,463986642,switch,choice4,0,0,1,24,5587,8125.791667,195019,SW7.png,sand_t.png,SW7.png,SW11.png,SW10.png,SW6.png,SW1.png,SW8.png,304575
21020,15:04:43,8723,463986642,choice,choice2,0,0,1,25,4464,7979.36,199484,SW7.png,sand_t.png,SW7.png,SW9.png,SW3.png,SW6.png,SW1.png,SW10.png,309598
21020,15:04:43,8723,463986642,switch,choice2,0,1,1,25,4464,7979.36,199484,SW7.png,sand_t.png,SW7.png,SW9.png,SW3.png,SW6.png,SW1.png,SW10.png,311820
21020,15:04:43,8723,463986642,choice,choice1,1,1,0,26,8820,8011.730769,208305,SW7.png,yog_t.png,Y6.png,Y13.png,Y12.png,Y10.png,Y2.png,Y3.png,321204
21020,15:04:43,8723,463986642,choice,choice2,0,1,1,27,11398,8137.185185,219704,SW7.png,ready_t.png,RM3.png,RM11.png,RM1.png,RM5.png,RM13.png,RM2.png,333165
21020,15:04:43,8723,463986642,switch,choice2,0,0,1,27,11398,8137.185185,219704,RM3.png,ready_t.png,RM3.png,RM11.png,RM1.png,RM5.png,RM13.png,RM2.png,334816
21020,15:04:43,8723,463986642,choice,choice2,0,0,1,28,6445,8076.785714,226150,RM3.png,soup_t.png,S9.png,S12.png,S5.png,S3.png,S6.png,S13.png,341812
21020,15:04:43,8723,463986642,switch,choice2,0,1,1,28,6445,8076.785714,226150,S9.png,soup_t.png,S9.png,S12.png,S5.png,S3.png,S6.png,S13.png,344763
21020,15:04:43,8723,463986642,choice,choice1,1,1,0,29,5768,7997.206897,231919,S9.png,crisps_t.png,C3.png,C10.png,C4.png,C6.png,C2.png,C7.png,351085
21020,15:04:43,8723,463986642,choice,choice1,1,1,0,30,4750,7889,236670,S9.png,soup_t.png,S9.png,S12.png,S13.png,S7.png,S3.png,S4.png,356384
21120,00:12:10,9936,507175247,choice,choice2,0,0,1,1,11714,11715,11715,RM8.png,soup_t.png,S9.png,S5.png,S6.png,S10.png,S13.png,S3.png,63643
21120,00:12:10,9936,507175247,switch,choice2,0,0,1,1,11714,11715,11715,S9.png,soup_t.png,S9.png,S5.png,S6.png,S10.png,S13.png,S3.png,69760
21120,00:12:10,9936,507175247,choice,choice1,1,0,0,2,6628,9172,18344,S9.png,yog_t.png,Y8.png,Y4.png,Y3.png,Y2.png,Y10.png,Y11.png,76990
21120,00:12:10,9936,507175247,choice,choice1,1,0,0,3,6654,8333,24999,S9.png,crisps_t.png,C5.png,C10.png,C8.png,C9.png,C2.png,C6.png,84243
21120,00:12:10,9936,507175247,choice,choice4,0,0,1,4,7101,8025.25,32101,S9.png,sand_t.png,SW7.png,SW9.png,SW3.png,SW6.png,SW1.png,SW10.png,91933
21120,00:12:10,9936,507175247,switch,choice4,0,0,1,4,7101,8025.25,32101,SW7.png,sand_t.png,SW7.png,SW9.png,SW3.png,SW6.png,SW1.png,SW10.png,95784
21120,00:12:10,9936,507175247,choice,choice1,1,0,0,5,7714,7963.2,39816,SW7.png,ready_t.png,RM3.png,RM11.png,RM1.png,RM5.png,RM13.png,RM2.png,104085
21120,00:12:10,9936,507175247,choice,choice2,0,0,1,6,5986,7633.833333,45803,SW7.png,cereal_t.png,BC11.png,BC3.png,BC2.png,BC12.png,BC8.png,BC1.png,110666
21120,00:12:10,9936,507175247,switch,choice2,0,0,1,6,5986,7633.833333,45803,BC11.png,cereal_t.png,BC11.png,BC3.png,BC2.png,BC12.png,BC8.png,BC1.png,113121
21120,00:12:10,9936,507175247,choice,choice1,1,0,0,7,7666,7638.571429,53470,BC11.png,yog_t.png,Y6.png,Y13.png,Y12.png,Y10.png,Y2.png,Y3.png,121387
21120,00:12:10,9936,507175247,choice,choice1,1,0,0,8,5421,7361.5,58892,BC11.png,ready_t.png,RM7.png,RM11.png,RM1.png,RM5.png,RM13.png,RM2.png,127418
21120,00:12:10,9936,507175247,choice,choice4,0,0,1,9,8381,7474.888889,67274,BC11.png,sand_t.png,SW7.png,SW11.png,SW10.png,SW6.png,SW1.png,SW8.png,136389
21120,00:12:10,9936,507175247,switch,choice4,0,0,1,9,8381,7474.888889,67274,SW7.png,sand_t.png,SW7.png,SW11.png,SW10.png,SW6.png,SW1.png,SW8.png,139409
21120,00:12:10,9936,507175247,choice,choice4,0,0,1,10,6755,7403,74030,SW7.png,sand_t.png,SW7.png,SW9.png,SW4.png,SW6.png,SW3.png,SW5.png,146752
21120,00:12:10,9936,507175247,switch,choice4,0,0,1,10,6755,7403,74030,SW7.png,sand_t.png,SW7.png,SW9.png,SW4.png,SW6.png,SW3.png,SW5.png,151139
21120,00:12:10,9936,507175247,choice,choice1,1,0,0,11,4706,7157.909091,78737,SW7.png,ready_t.png,RM9.png,RM4.png,RM11.png,RM5.png,RM2.png,RM12.png,156441
21120,00:12:10,9936,507175247,choice,choice1,1,0,0,12,5899,7053.083333,84637,SW7.png,ready_t.png,RM8.png,RM11.png,RM1.png,RM5.png,RM13.png,RM2.png,162930
21120,00:12:10,9936,507175247,choice,choice3,0,0,1,13,9069,7208.230769,93707,SW7.png,soup_t.png,S9.png,S12.png,S5.png,S13.png,S3.png,S7.png,172594
21120,00:12:10,9936,507175247,switch,choice3,0,0,1,13,9069,7208.230769,93707,S9.png,soup_t.png,S9.png,S12.png,S5.png,S13.png,S3.png,S7.png,175176
21120,00:12:10,9936,507175247,choice,choice2,0,0,1,14,6685,7170.928571,100393,S9.png,crisps_t.png,C3.png,C10.png,C4.png,C2.png,C9.png,C6.png,182448
21120,00:12:10,9936,507175247,switch,choice2,0,0,1,14,6685,7170.928571,100393,C3.png,crisps_t.png,C3.png,C10.png,C4.png,C2.png,C9.png,C6.png,184810
21120,00:12:10,9936,507175247,choice,choice1,1,0,0,15,3466,6924,103860,C3.png,ready_t.png,RM9.png,RM4.png,RM12.png,RM5.png,RM13.png,RM8.png,188887
21120,00:12:10,9936,507175247,breaktime,choice1,1,0,0,15,3466,6924,103860,C3.png,ready_t.png,RM9.png,RM4.png,RM12.png,RM5.png,RM13.png,RM8.png,191142
21120,00:12:10,9936,507175247,choice,choice3,0,0,1,16,7805,6979.125,111666,C3.png,soup_t.png,S9.png,S12.png,S5.png,S3.png,S6.png,S13.png,199537
21120,00:12:10,9936,507175247,switch,choice3,0,0,1,16,7805,6979.125,111666,S9.png,soup_t.png,S9.png,S12.png,S5.png,S3.png,S6.png,S13.png,201095
21120,00:12:10,9936,507175247,choice,choice2,0,0,1,17,7089,6985.647059,118756,S9.png,crisps_t.png,C3.png,C5.png,C7.png,C2.png,C11.png,C12.png,208778
21120,00:12:10,9936,507175247,switch,choice2,0,0,1,17,7089,6985.647059,118756,C3.png,crisps_t.png,C3.png,C5.png,C7.png,C2.png,C11.png,C12.png,210598
21120,00:12:10,9936,507175247,choice,choice4,0,0,1,18,6125,6937.888889,124882,C3.png,soup_t.png,S9.png,S12.png,S6.png,S1.png,S4.png,S3.png,217321
21120,00:12:10,9936,507175247,switch,choice4,0,0,1,18,6125,6937.888889,124882,S9.png,soup_t.png,S9.png,S12.png,S6.png,S1.png,S4.png,S3.png,218443
21120,00:12:10,9936,507175247,choice,choice3,0,0,1,19,1538,6653.736842,126421,S9.png,cereal_t.png,BC6.png,BC9.png,BC12.png,BC2.png,BC5.png,BC8.png,220594
21120,00:12:10,9936,507175247,switch,choice3,0,0,1,19,1538,6653.736842,126421,BC6.png,cereal_t.png,BC6.png,BC9.png,BC12.png,BC2.png,BC5.png,BC8.png,222097
21120,00:12:10,9936,507175247,choice,choice4,0,0,1,20,2170,6429.6,128592,BC6.png,cereal_t.png,BC5.png,BC1.png,BC3.png,BC2.png,BC8.png,BC9.png,224855
21120,00:12:10,9936,507175247,switch,choice4,0,0,1,20,2170,6429.6,128592,BC5.png,cereal_t.png,BC5.png,BC1.png,BC3.png,BC2.png,BC8.png,BC9.png,226499
21120,00:12:10,9936,507175247,choice,choice1,1,0,0,21,4170,6322.047619,132763,BC5.png,yog_t.png,Y9.png,Y1.png,Y10.png,Y12.png,Y2.png,Y3.png,231268
21120,00:12:10,9936,507175247,choice,choice3,0,0,1,22,17529,6831.5,150293,BC5.png,sand_t.png,SW7.png,SW9.png,SW4.png,SW6.png,SW8.png,SW11.png,249390
21120,00:12:10,9936,507175247,switch,choice3,0,0,1,22,17529,6831.5,150293,SW7.png,sand_t.png,SW7.png,SW9.png,SW4.png,SW6.png,SW8.png,SW11.png,251012
21120,00:12:10,9936,507175247,choice,choice4,0,0,1,23,3119,6670.130435,153413,SW7.png,cereal_t.png,BC4.png,BC1.png,BC12.png,BC2.png,BC8.png,BC5.png,254727
21120,00:12:10,9936,507175247,switch,choice4,0,0,1,23,3119,6670.130435,153413,BC4.png,cereal_t.png,BC4.png,BC1.png,BC12.png,BC2.png,BC8.png,BC5.png,257373
21120,00:12:10,9936,507175247,choice,choice2,0,0,1,24,5112,6605.25,158526,BC4.png,soup_t.png,S9.png,S12.png,S13.png,S7.png,S3.png,S4.png,263081
21120,00:12:10,9936,507175247,switch,choice2,0,0,1,24,5112,6605.25,158526,S9.png,soup_t.png,S9.png,S12.png,S13.png,S7.png,S3.png,S4.png,264569
21120,00:12:10,9936,507175247,choice,choice3,0,0,1,25,8848,6695,167375,S9.png,crisps_t.png,C3.png,C7.png,C4.png,C12.png,C6.png,C9.png,274010
21120,00:12:10,9936,507175247,switch,choice3,0,0,1,25,8848,6695,167375,C3.png,crisps_t.png,C3.png,C7.png,C4.png,C12.png,C6.png,C9.png,275498
21120,00:12:10,9936,507175247,choice,choice2,0,0,1,26,4540,6612.153846,171916,C3.png,cereal_t.png,BC11.png,BC3.png,BC2.png,BC9.png,BC8.png,BC1.png,280625
21120,00:12:10,9936,507175247,switch,choice2,0,0,1,26,4540,6612.153846,171916,BC11.png,cereal_t.png,BC11.png,BC3.png,BC2.png,BC9.png,BC8.png,BC1.png,283136
21120,00:12:10,9936,507175247,choice,choice6,0,0,1,27,4918,6549.444444,176835,BC11.png,crisps_t.png,C3.png,C10.png,C4.png,C6.png,C2.png,C7.png,288629
21120,00:12:10,9936,507175247,switch,choice6,0,0,1,27,4918,6549.444444,176835,C3.png,crisps_t.png,C3.png,C10.png,C4.png,C6.png,C2.png,C7.png,290005
21120,00:12:10,9936,507175247,choice,choice3,0,0,1,28,6857,6560.464286,183693,C3.png,sand_t.png,SW7.png,SW9.png,SW4.png,SW6.png,SW8.png,SW11.png,297445
21120,00:12:10,9936,507175247,switch,choice3,0,0,1,28,6857,6560.464286,183693,SW7.png,sand_t.png,SW7.png,SW9.png,SW4.png,SW6.png,SW8.png,SW11.png,298891
21120,00:12:10,9936,507175247,choice,choice6,0,0,1,29,3200,6444.62069,186894,SW7.png,crisps_t.png,C3.png,C10.png,C4.png,C6.png,C2.png,C7.png,302664
21120,00:12:10,9936,507175247,switch,choice6,0,0,1,29,3200,6444.62069,186894,C3.png,crisps_t.png,C3.png,C10.png,C4.png,C6.png,C2.png,C7.png,304122
21120,00:12:10,9936,507175247,choice,choice2,0,0,1,30,3851,6358.2,190746,C3.png,yog_t.png,Y8.png,Y1.png,Y3.png,Y12.png,Y10.png,Y2.png,308559
21120,00:12:10,9936,507175247,switch,choice2,0,1,1,30,3851,6358.2,190746,Y8.png,yog_t.png,Y8.png,Y1.png,Y3.png,Y12.png,Y10.png,Y2.png,311014
21220,14:13:35,9794,908672578,choice,choice2,0,0,1,1,6384,6385,6385,RM8.png,crisps_t.png,C5.png,C10.png,C8.png,C9.png,C2.png,C6.png,84283
21220,14:13:35,9794,908672578,switch,choice2,0,0,1,1,6384,6385,6385,C5.png,crisps_t.png,C5.png,C10.png,C8.png,C9.png,C2.png,C6.png,93801
21220,14:13:35,9794,908672578,choice,choice4,0,0,1,2,27232,16809,33618,C5.png,sand_t.png,SW7.png,SW9.png,SW4.png,SW6.png,SW3.png,SW5.png,121601
21220,14:13:35,9794,908672578,switch,choice4,0,0,1,2,27232,16809,33618,SW7.png,sand_t.png,SW7.png,SW9.png,SW4.png,SW6.png,SW3.png,SW5.png,123781
21220,14:13:35,9794,908672578,choice,choice2,0,0,1,3,50934,28184.33333,84553,SW7.png,yog_t.png,Y9.png,Y1.png,Y10.png,Y12.png,Y2.png,Y3.png,175311
21220,14:13:35,9794,908672578,switch,choice2,0,1,1,3,50934,28184.33333,84553,Y9.png,yog_t.png,Y9.png,Y1.png,Y10.png,Y12.png,Y2.png,Y3.png,181746
21220,14:13:35,9794,908672578,choice,choice2,0,1,1,4,7768,23080.5,92322,Y9.png,cereal_t.png,BC11.png,BC3.png,BC2.png,BC9.png,BC8.png,BC1.png,190080
21220,14:13:35,9794,908672578,switch,choice2,0,0,1,4,7768,23080.5,92322,BC11.png,cereal_t.png,BC11.png,BC3.png,BC2.png,BC9.png,BC8.png,BC1.png,191472
21220,14:13:35,9794,908672578,choice,choice2,0,0,1,5,23950,23254.6,116273,BC11.png,crisps_t.png,C3.png,C7.png,C4.png,C12.png,C6.png,C9.png,215989
21220,14:13:35,9794,908672578,switch,choice2,0,0,1,5,23950,23254.6,116273,C3.png,crisps_t.png,C3.png,C7.png,C4.png,C12.png,C6.png,C9.png,217749
21220,14:13:35,9794,908672578,choice,choice4,0,0,1,6,8677,20825.16667,124951,C3.png,cereal_t.png,BC5.png,BC1.png,BC3.png,BC2.png,BC8.png,BC9.png,226993
21220,14:13:35,9794,908672578,switch,choice4,0,0,1,6,8677,20825.16667,124951,BC5.png,cereal_t.png,BC5.png,BC1.png,BC3.png,BC2.png,BC8.png,BC9.png,227927
21220,14:13:35,9794,908672578,choice,choice2,0,0,1,7,11417,19481.28571,136369,BC5.png,cereal_t.png,BC11.png,BC3.png,BC2.png,BC12.png,BC8.png,BC1.png,239908
21220,14:13:35,9794,908672578,switch,choice2,0,0,1,7,11417,19481.28571,136369,BC11.png,cereal_t.png,BC11.png,BC3.png,BC2.png,BC12.png,BC8.png,BC1.png,242819
21220,14:13:35,9794,908672578,choice,choice3,0,0,1,8,52479,23606.125,188849,BC11.png,sand_t.png,SW7.png,SW9.png,SW4.png,SW6.png,SW8.png,SW11.png,295859
21220,14:13:35,9794,908672578,switch,choice3,0,0,1,8,52479,23606.125,188849,SW7.png,sand_t.png,SW7.png,SW9.png,SW4.png,SW6.png,SW8.png,SW11.png,297190
21220,14:13:35,9794,908672578,choice,choice1,1,0,0,9,36448,25033.11111,225298,SW7.png,yog_t.png,Y6.png,Y13.png,Y12.png,Y10.png,Y2.png,Y3.png,334199
21220,14:13:35,9794,908672578,choice,choice2,0,0,1,10,10174,23547.3,235473,SW7.png,sand_t.png,SW7.png,SW11.png,SW10.png,SW6.png,SW1.png,SW8.png,344945
21220,14:13:35,9794,908672578,switch,choice2,0,0,1,10,10174,23547.3,235473,SW7.png,sand_t.png,SW7.png,SW11.png,SW10.png,SW6.png,SW1.png,SW8.png,346414
21220,14:13:35,9794,908672578,choice,choice2,0,0,1,11,13561,22639.54545,249035,SW7.png,crisps_t.png,C3.png,C10.png,C4.png,C2.png,C9.png,C6.png,360538
21220,14:13:35,9794,908672578,switch,choice2,0,0,1,11,13561,22639.54545,249035,C3.png,crisps_t.png,C3.png,C10.png,C4.png,C2.png,C9.png,C6.png,361806
21220,14:13:35,9794,908672578,choice,choice1,1,0,0,12,13060,21841.33333,262096,C3.png,ready_t.png,RM7.png,RM11.png,RM1.png,RM5.png,RM13.png,RM2.png,375425
21220,14:13:35,9794,908672578,choice,choice4,0,0,1,13,7825,20763.23077,269922,C3.png,cereal_t.png,BC6.png,BC9.png,BC12.png,BC2.png,BC5.png,BC8.png,383812
21220,14:13:35,9794,908672578,switch,choice4,0,0,1,13,7825,20763.23077,269922,BC6.png,cereal_t.png,BC6.png,BC9.png,BC12.png,BC2.png,BC5.png,BC8.png,384730
21220,14:13:35,9794,908672578,choice,choice3,0,0,1,14,11513,20102.57143,281436,BC6.png,soup_t.png,S9.png,S12.png,S5.png,S13.png,S3.png,S7.png,396808
21220,14:13:35,9794,908672578,switch,choice3,0,0,1,14,11513,20102.57143,281436,S9.png,soup_t.png,S9.png,S12.png,S5.png,S13.png,S3.png,S7.png,398014
21220,14:13:35,9794,908672578,choice,choice1,1,0,0,15,16339,19851.73333,297776,S9.png,ready_t.png,RM9.png,RM4.png,RM11.png,RM5.png,RM2.png,RM12.png,414925
21220,14:13:35,9794,908672578,breaktime,choice1,1,0,0,15,16339,19851.73333,297776,S9.png,ready_t.png,RM9.png,RM4.png,RM11.png,RM5.png,RM2.png,RM12.png,416887
21220,14:13:35,9794,908672578,choice,choice2,0,0,1,16,8054,19114.4375,305831,S9.png,crisps_t.png,C3.png,C5.png,C7.png,C2.png,C11.png,C12.png,425507
21220,14:13:35,9794,908672578,switch,choice2,0,0,1,16,8054,19114.4375,305831,C3.png,crisps_t.png,C3.png,C5.png,C7.png,C2.png,C11.png,C12.png,426650
21220,14:13:35,9794,908672578,choice,choice4,0,0,1,17,9351,18540.17647,315183,C3.png,sand_t.png,SW7.png,SW9.png,SW3.png,SW6.png,SW1.png,SW10.png,436562
21220,14:13:35,9794,908672578,switch,choice4,0,0,1,17,9351,18540.17647,315183,SW7.png,sand_t.png,SW7.png,SW9.png,SW3.png,SW6.png,SW1.png,SW10.png,440462
21220,14:13:35,9794,908672578,choice,choice1,1,0,0,18,6463,17869.27778,321647,SW7.png,soup_t.png,S9.png,S12.png,S13.png,S7.png,S3.png,S4.png,447497
21220,14:13:35,9794,908672578,choice,choice2,0,0,1,19,24799,18234.05263,346447,SW7.png,crisps_t.png,C3.png,C10.png,C4.png,C6.png,C2.png,C7.png,472860
21220,14:13:35,9794,908672578,switch,choice2,0,0,1,19,24799,18234.05263,346447,C3.png,crisps_t.png,C3.png,C10.png,C4.png,C6.png,C2.png,C7.png,474020
21220,14:13:35,9794,908672578,choice,choice3,0,0,1,20,18488,18246.8,364936,C3.png,soup_t.png,S9.png,S12.png,S5.png,S3.png,S6.png,S13.png,493077
21220,14:13:35,9794,908672578,switch,choice3,0,0,1,20,18488,18246.8,364936,S9.png,soup_t.png,S9.png,S12.png,S5.png,S3.png,S6.png,S13.png,494220
21220,14:13:35,9794,908672578,choice,choice1,1,0,0,21,7997,17758.7619,372934,S9.png,yog_t.png,Y8.png,Y1.png,Y3.png,Y12.png,Y10.png,Y2.png,502786
21220,14:13:35,9794,908672578,choice,choice1,1,0,0,22,14091,17592.09091,387026,S9.png,ready_t.png,RM9.png,RM4.png,RM12.png,RM5.png,RM13.png,RM8.png,517440
21220,14:13:35,9794,908672578,choice,choice1,1,0,0,23,6267,17099.73913,393294,S9.png,yog_t.png,Y8.png,Y12.png,Y2.png,Y11.png,Y10.png,Y3.png,524271
21220,14:13:35,9794,908672578,choice,choice1,1,0,0,24,30663,17664.91667,423958,S9.png,soup_t.png,S9.png,S5.png,S6.png,S10.png,S13.png,S3.png,555495
21220,14:13:35,9794,908672578,choice,choice1,1,0,0,25,8092,17282.04,432051,S9.png,yog_t.png,Y8.png,Y4.png,Y3.png,Y2.png,Y10.png,Y11.png,564165
21220,14:13:35,9794,908672578,choice,choice2,0,0,1,26,46923,18422.11538,478975,S9.png,ready_t.png,RM3.png,RM11.png,RM1.png,RM5.png,RM13.png,RM2.png,611654
21220,14:13:35,9794,908672578,switch,choice2,0,0,1,26,46923,18422.11538,478975,RM3.png,ready_t.png,RM3.png,RM11.png,RM1.png,RM5.png,RM13.png,RM2.png,612807
21220,14:13:35,9794,908672578,choice,choice1,1,0,0,27,5655,17949.2963,484631,RM3.png,soup_t.png,S9.png,S12.png,S6.png,S1.png,S4.png,S3.png,619030
21220,14:13:35,9794,908672578,choice,choice1,1,0,0,28,19619,18008.96429,504251,RM3.png,ready_t.png,RM8.png,RM11.png,RM1.png,RM5.png,RM13.png,RM2.png,639222
21220,14:13:35,9794,908672578,choice,choice3,0,0,1,29,3894,17522.27586,508146,RM3.png,soup_t.png,S9.png,S12.png,S5.png,S3.png,S6.png,S13.png,643681
21220,14:13:35,9794,908672578,switch,choice3,0,0,1,29,3894,17522.27586,508146,S9.png,soup_t.png,S9.png,S12.png,S5.png,S3.png,S6.png,S13.png,645314
21220,14:13:35,9794,908672578,choice,choice2,0,0,1,30,3105,17041.73333,511252,S9.png,cereal_t.png,BC11.png,BC3.png,BC2.png,BC12.png,BC8.png,BC1.png,648986
21220,14:13:35,9794,908672578,switch,choice2,0,0,1,30,3105,17041.73333,511252,BC11.png,cereal_t.png,BC11.png,BC3.png,BC2.png,BC12.png,BC8.png,BC1.png,650246
21220,18:52:03,9816,299294546,choice,choice6,0,0,1,1,15608,15609,15609,RM8.png,cereal_t.png,BC4.png,BC1.png,BC12.png,BC2.png,BC8.png,BC5.png,75061
21220,18:52:03,9816,299294546,switch,choice6,0,0,1,1,15608,15609,15609,BC4.png,cereal_t.png,BC4.png,BC1.png,BC12.png,BC2.png,BC8.png,BC5.png,79978
21220,18:52:03,9816,299294546,choice,choice1,1,0,0,2,10529,13069.5,26139,BC4.png,soup_t.png,S9.png,S12.png,S13.png,S7.png,S3.png,S4.png,91150
21220,18:52:03,9816,299294546,choice,choice1,1,0,0,3,8430,11523.33333,34570,BC4.png,yog_t.png,Y8.png,Y4.png,Y3.png,Y2.png,Y10.png,Y11.png,100218
21220,18:52:03,9816,299294546,choice,choice1,1,0,0,4,5507,10019.5,40078,BC4.png,ready_t.png,RM9.png,RM4.png,RM12.png,RM5.png,RM13.png,RM8.png,106362
21220,18:52:03,9816,299294546,choice,choice3,0,0,1,5,15028,11021.4,55107,BC4.png,crisps_t.png,C3.png,C7.png,C4.png,C12.png,C6.png,C9.png,122033
21220,18:52:03,9816,299294546,switch,choice3,0,0,1,5,15028,11021.4,55107,C3.png,crisps_t.png,C3.png,C7.png,C4.png,C12.png,C6.png,C9.png,126374
21220,18:52:03,9816,299294546,choice,choice1,1,0,0,6,5730,10139.66667,60838,C3.png,crisps_t.png,C5.png,C10.png,C8.png,C9.png,C2.png,C6.png,132721
21220,18:52:03,9816,299294546,choice,choice4,0,0,1,7,9487,10046.57143,70326,C3.png,sand_t.png,SW7.png,SW11.png,SW10.png,SW6.png,SW1.png,SW8.png,142844
21220,18:52:03,9816,299294546,switch,choice4,0,0,1,7,9487,10046.57143,70326,SW7.png,sand_t.png,SW7.png,SW11.png,SW10.png,SW6.png,SW1.png,SW8.png,144547
21220,18:52:03,9816,299294546,choice,choice4,0,0,1,8,11662,10248.625,81989,SW7.png,sand_t.png,SW7.png,SW9.png,SW4.png,SW6.png,SW8.png,SW11.png,156837
21220,18:52:03,9816,299294546,switch,choice4,0,0,1,8,11662,10248.625,81989,SW7.png,sand_t.png,SW7.png,SW9.png,SW4.png,SW6.png,SW8.png,SW11.png,158693
21220,18:52:03,9816,299294546,choice,choice4,0,0,1,9,6553,9838.111111,88543,SW7.png,cereal_t.png,BC11.png,BC3.png,BC2.png,BC12.png,BC8.png,BC1.png,165862
21220,18:52:03,9816,299294546,switch,choice4,0,1,1,9,6553,9838.111111,88543,BC11.png,cereal_t.png,BC11.png,BC3.png,BC2.png,BC12.png,BC8.png,BC1.png,168650
21220,18:52:03,9816,299294546,choice,choice1,1,1,0,10,4562,9310.6,93106,BC11.png,yog_t.png,Y9.png,Y1.png,Y10.png,Y12.png,Y2.png,Y3.png,173836
21220,18:52:03,9816,299294546,choice,choice4,0,1,1,11,5373,8952.727273,98480,BC11.png,sand_t.png,SW7.png,SW9.png,SW3.png,SW6.png,SW1.png,SW10.png,179832
21220,18:52:03,9816,299294546,switch,choice4,0,0,1,11,5373,8952.727273,98480,SW7.png,sand_t.png,SW7.png,SW9.png,SW3.png,SW6.png,SW1.png,SW10.png,181539
21220,18:52:03,9816,299294546,choice,choice1,1,0,0,12,8420,8908.416667,106901,SW7.png,yog_t.png,Y8.png,Y1.png,Y3.png,Y12.png,Y10.png,Y2.png,190581
21220,18:52:03,9816,299294546,choice,choice1,1,0,0,13,2368,8405.384615,109270,SW7.png,ready_t.png,RM9.png,RM4.png,RM11.png,RM5.png,RM2.png,RM12.png,193577
21220,18:52:03,9816,299294546,choice,choice3,0,0,1,14,8008,8377.071429,117279,SW7.png,soup_t.png,S9.png,S12.png,S5.png,S13.png,S3.png,S7.png,202202
21220,18:52:03,9816,299294546,switch,choice3,0,1,1,14,8008,8377.071429,117279,S9.png,soup_t.png,S9.png,S12.png,S5.png,S13.png,S3.png,S7.png,204089
21220,18:52:03,9816,299294546,choice,choice1,1,1,0,15,24238,9434.533333,141518,S9.png,ready_t.png,RM3.png,RM11.png,RM1.png,RM5.png,RM13.png,RM2.png,228949
21220,18:52:03,9816,299294546,breaktime,choice1,1,1,0,15,24238,9434.533333,141518,S9.png,ready_t.png,RM3.png,RM11.png,RM1.png,RM5.png,RM13.png,RM2.png,232007
21220,18:52:03,9816,299294546,choice,choice3,0,1,1,16,4791,9144.375,146310,S9.png,crisps_t.png,C3.png,C10.png,C4.png,C6.png,C2.png,C7.png,237420
21220,18:52:03,9816,299294546,switch,choice3,0,0,1,16,4791,9144.375,146310,C3.png,crisps_t.png,C3.png,C10.png,C4.png,C6.png,C2.png,C7.png,238772
21220,18:52:03,9816,299294546,choice,choice4,0,0,1,17,5283,8917.294118,151594,C3.png,sand_t.png,SW7.png,SW9.png,SW4.png,SW6.png,SW3.png,SW5.png,244680
21220,18:52:03,9816,299294546,switch,choice4,0,0,1,17,5283,8917.294118,151594,SW7.png,sand_t.png,SW7.png,SW9.png,SW4.png,SW6.png,SW3.png,SW5.png,246099
21220,18:52:03,9816,299294546,choice,choice1,1,0,0,18,28031,9979.222222,179626,SW7.png,ready_t.png,RM7.png,RM11.png,RM1.png,RM5.png,RM13.png,RM2.png,274746
21220,18:52:03,9816,299294546,choice,choice1,1,0,0,19,3100,9617.210526,182727,SW7.png,ready_t.png,RM8.png,RM11.png,RM1.png,RM5.png,RM13.png,RM2.png,278465
21220,18:52:03,9816,299294546,choice,choice5,0,0,1,20,3215,9297.15,185943,SW7.png,soup_t.png,S9.png,S5.png,S6.png,S10.png,S13.png,S3.png,282297
21220,18:52:03,9816,299294546,switch,choice5,0,1,1,20,3215,9297.15,185943,S9.png,soup_t.png,S9.png,S5.png,S6.png,S10.png,S13.png,S3.png,283573
21220,18:52:03,9816,299294546,choice,choice3,0,1,1,21,2905,8992.809524,188849,S9.png,cereal_t.png,BC5.png,BC1.png,BC3.png,BC2.png,BC8.png,BC9.png,287104
21220,18:52:03,9816,299294546,switch,choice3,0,0,1,21,2905,8992.809524,188849,BC5.png,cereal_t.png,BC5.png,BC1.png,BC3.png,BC2.png,BC8.png,BC9.png,289577
21220,18:52:03,9816,299294546,choice,choice1,1,0,0,22,7020,8903.181818,195870,BC5.png,yog_t.png,Y6.png,Y13.png,Y12.png,Y10.png,Y2.png,Y3.png,297220
21220,18:52:03,9816,299294546,choice,choice6,0,0,1,23,5767,8766.869565,201638,BC5.png,sand_t.png,SW7.png,SW9.png,SW8.png,SW6.png,SW1.png,SW11.png,303601
21220,18:52:03,9816,299294546,switch,choice6,0,0,1,23,5767,8766.869565,201638,SW7.png,sand_t.png,SW7.png,SW9.png,SW8.png,SW6.png,SW1.png,SW11.png,304801
21220,18:52:03,9816,299294546,choice,choice3,0,0,1,24,6523,8673.416667,208162,SW7.png,soup_t.png,S9.png,S12.png,S5.png,S3.png,S6.png,S13.png,311941
21220,18:52:03,9816,299294546,switch,choice3,0,0,1,24,6523,8673.416667,208162,S9.png,soup_t.png,S9.png,S12.png,S5.png,S3.png,S6.png,S13.png,313797
21220,18:52:03,9816,299294546,choice,choice2,0,0,1,25,3532,8467.8,211695,S9.png,crisps_t.png,C3.png,C5.png,C7.png,C2.png,C11.png,C12.png,317950
21220,18:52:03,9816,299294546,switch,choice2,0,0,1,25,3532,8467.8,211695,C3.png,crisps_t.png,C3.png,C5.png,C7.png,C2.png,C11.png,C12.png,319159
21220,18:52:03,9816,299294546,choice,choice3,0,0,1,26,6149,8378.653846,217845,C3.png,cereal_t.png,BC6.png,BC9.png,BC12.png,BC2.png,BC5.png,BC8.png,325935
21220,18:52:03,9816,299294546,switch,choice3,0,0,1,26,6149,8378.653846,217845,BC6.png,cereal_t.png,BC6.png,BC9.png,BC12.png,BC2.png,BC5.png,BC8.png,327535
21220,18:52:03,9816,299294546,choice,choice3,0,0,1,27,5233,8262.185185,223079,BC6.png,yog_t.png,Y8.png,Y12.png,Y2.png,Y11.png,Y10.png,Y3.png,333385
21220,18:52:03,9816,299294546,switch,choice3,0,1,1,27,5233,8262.185185,223079,Y8.png,yog_t.png,Y8.png,Y12.png,Y2.png,Y11.png,Y10.png,Y3.png,335001
21220,18:52:03,9816,299294546,choice,choice4,0,1,1,28,6813,8210.464286,229893,Y8.png,sand_t.png,SW7.png,SW9.png,SW4.png,SW6.png,SW8.png,SW11.png,342433
21220,18:52:03,9816,299294546,switch,choice4,0,0,1,28,6813,8210.464286,229893,SW7.png,sand_t.png,SW7.png,SW9.png,SW4.png,SW6.png,SW8.png,SW11.png,343769
21220,18:52:03,9816,299294546,choice,choice4,0,0,1,29,2757,8022.448276,232651,SW7.png,cereal_t.png,BC6.png,BC9.png,BC12.png,BC2.png,BC5.png,BC8.png,347143
21220,18:52:03,9816,299294546,switch,choice4,0,1,1,29,2757,8022.448276,232651,BC6.png,cereal_t.png,BC6.png,BC9.png,BC12.png,BC2.png,BC5.png,BC8.png,348696
21220,18:52:03,9816,299294546,choice,choice3,0,1,1,30,2792,7848.133333,235444,BC6.png,soup_t.png,S9.png,S12.png,S13.png,S7.png,S3.png,S4.png,352112
21220,18:52:03,9816,299294546,switch,choice3,0,1,1,30,2792,7848.133333,235444,S9.png,soup_t.png,S9.png,S12.png,S13.png,S7.png,S3.png,S4.png,353785
21620,21:14:20,9977,921474983,choice,choice6,0,0,1,1,16494,16495,16495,RM8.png,sand_t.png,SW7.png,SW9.png,SW4.png,SW6.png,SW8.png,SW11.png,86460
21620,21:14:20,9977,921474983,switch,choice6,0,0,1,1,16494,16495,16495,SW7.png,sand_t.png,SW7.png,SW9.png,SW4.png,SW6.png,SW8.png,SW11.png,90798
21620,21:14:20,9977,921474983,choice,choice1,1,0,0,2,5496,10996,21992,SW7.png,crisps_t.png,C5.png,C10.png,C8.png,C9.png,C2.png,C6.png,96859
21620,21:14:20,9977,921474983,choice,choice1,1,0,0,3,5714,9235.666667,27707,SW7.png,soup_t.png,S9.png,S12.png,S6.png,S1.png,S4.png,S3.png,103143
21620,21:14:20,9977,921474983,choice,choice2,0,0,1,4,2115,7455.75,29823,SW7.png,crisps_t.png,C3.png,C5.png,C7.png,C2.png,C11.png,C12.png,105826
21620,21:14:20,9977,921474983,switch,choice2,0,1,1,4,2115,7455.75,29823,C3.png,crisps_t.png,C3.png,C5.png,C7.png,C2.png,C11.png,C12.png,108669
21620,21:14:20,9977,921474983,choice,choice1,1,1,0,5,5384,7041.6,35208,C3.png,yog_t.png,Y8.png,Y1.png,Y3.png,Y12.png,Y10.png,Y2.png,114628
21620,21:14:20,9977,921474983,choice,choice1,1,1,0,6,2800,6334.833333,38009,C3.png,yog_t.png,Y8.png,Y12.png,Y2.png,Y11.png,Y10.png,Y3.png,117993
21620,21:14:20,9977,921474983,choice,choice1,1,1,0,7,6591,6371.571429,44601,C3.png,soup_t.png,S9.png,S12.png,S5.png,S13.png,S3.png,S7.png,125150
21620,21:14:20,9977,921474983,choice,choice2,0,1,1,8,3696,6037.25,48298,C3.png,crisps_t.png,C3.png,C10.png,C4.png,C2.png,C9.png,C6.png,129404
21620,21:14:20,9977,921474983,switch,choice2,0,1,1,8,3696,6037.25,48298,C3.png,crisps_t.png,C3.png,C10.png,C4.png,C2.png,C9.png,C6.png,131195
21620,21:14:20,9977,921474983,choice,choice2,0,1,1,9,6794,6121.444444,55093,C3.png,cereal_t.png,BC11.png,BC3.png,BC2.png,BC12.png,BC8.png,BC1.png,138551
21620,21:14:20,9977,921474983,switch,choice2,0,1,1,9,6794,6121.444444,55093,BC11.png,cereal_t.png,BC11.png,BC3.png,BC2.png,BC12.png,BC8.png,BC1.png,140940
21620,21:14:20,9977,921474983,choice,choice1,1,1,0,10,1884,5697.8,56978,BC11.png,ready_t.png,RM9.png,RM4.png,RM11.png,RM5.png,RM2.png,RM12.png,143389
21620,21:14:20,9977,921474983,choice,choice1,1,1,0,11,11005,6180.363636,67984,BC11.png,soup_t.png,S9.png,S12.png,S13.png,S7.png,S3.png,S4.png,154960
21620,21:14:20,9977,921474983,choice,choice1,1,1,0,12,1365,5779.166667,69350,BC11.png,ready_t.png,RM9.png,RM4.png,RM12.png,RM5.png,RM13.png,RM8.png,156885
21620,21:14:20,9977,921474983,choice,choice4,0,1,1,13,4850,5707.769231,74201,BC11.png,cereal_t.png,BC6.png,BC9.png,BC12.png,BC2.png,BC5.png,BC8.png,162302
21620,21:14:20,9977,921474983,switch,choice4,0,1,1,13,4850,5707.769231,74201,BC6.png,cereal_t.png,BC6.png,BC9.png,BC12.png,BC2.png,BC5.png,BC8.png,165905
21620,21:14:20,9977,921474983,choice,choice1,1,1,0,14,2161,5454.5,76363,BC6.png,yog_t.png,Y8.png,Y4.png,Y3.png,Y2.png,Y10.png,Y11.png,168629
21620,21:14:20,9977,921474983,choice,choice1,1,1,0,15,3838,5346.8,80202,BC6.png,yog_t.png,Y6.png,Y13.png,Y12.png,Y10.png,Y2.png,Y3.png,173039
21620,21:14:20,9977,921474983,breaktime,choice1,1,1,0,15,3838,5346.8,80202,BC6.png,yog_t.png,Y6.png,Y13.png,Y12.png,Y10.png,Y2.png,Y3.png,175760
21620,21:14:20,9977,921474983,choice,choice1,1,1,0,16,3697,5243.75,83900,BC6.png,crisps_t.png,C3.png,C7.png,C4.png,C12.png,C6.png,C9.png,180030
21620,21:14:20,9977,921474983,choice,choice4,0,1,1,17,5759,5274.117647,89660,BC6.png,sand_t.png,SW7.png,SW9.png,SW3.png,SW6.png,SW1.png,SW10.png,186341
21620,21:14:20,9977,921474983,switch,choice4,0,1,1,17,5759,5274.117647,89660,SW7.png,sand_t.png,SW7.png,SW9.png,SW3.png,SW6.png,SW1.png,SW10.png,191569
21620,21:14:20,9977,921474983,choice,choice1,1,1,0,18,4616,5237.611111,94277,SW7.png,soup_t.png,S9.png,S12.png,S5.png,S3.png,S6.png,S13.png,196746
21620,21:14:20,9977,921474983,choice,choice4,0,1,1,19,5459,5249.315789,99737,SW7.png,sand_t.png,SW7.png,SW9.png,SW4.png,SW6.png,SW3.png,SW5.png,202772
21620,21:14:20,9977,921474983,switch,choice4,0,1,1,19,5459,5249.315789,99737,SW7.png,sand_t.png,SW7.png,SW9.png,SW4.png,SW6.png,SW3.png,SW5.png,205754
21620,21:14:20,9977,921474983,choice,choice6,0,1,1,20,1194,5046.6,100932,SW7.png,sand_t.png,SW7.png,SW9.png,SW8.png,SW6.png,SW1.png,SW11.png,207505
21620,21:14:20,9977,921474983,switch,choice6,0,1,1,20,1194,5046.6,100932,SW7.png,sand_t.png,SW7.png,SW9.png,SW8.png,SW6.png,SW1.png,SW11.png,208542
21620,21:14:20,9977,921474983,choice,choice3,0,1,1,21,2255,4913.714286,103188,SW7.png,cereal_t.png,BC5.png,BC1.png,BC3.png,BC2.png,BC8.png,BC9.png,211349
21620,21:14:20,9977,921474983,switch,choice3,0,1,1,21,2255,4913.714286,103188,BC5.png,cereal_t.png,BC5.png,BC1.png,BC3.png,BC2.png,BC8.png,BC9.png,213219
21620,21:14:20,9977,921474983,choice,choice1,1,1,0,22,1064,4738.772727,104253,BC5.png,ready_t.png,RM7.png,RM11.png,RM1.png,RM5.png,RM13.png,RM2.png,214841
21620,21:14:20,9977,921474983,choice,choice4,0,1,1,23,752,4565.478261,105006,BC5.png,soup_t.png,S9.png,S5.png,S6.png,S10.png,S13.png,S3.png,216162
21620,21:14:20,9977,921474983,choice,choice4,0,1,1,24,7729,4697.333333,112736,BC5.png,sand_t.png,SW7.png,SW11.png,SW10.png,SW6.png,SW1.png,SW8.png,234504
21620,21:14:20,9977,921474983,switch,choice4,0,1,1,24,7729,4697.333333,112736,SW7.png,sand_t.png,SW7.png,SW11.png,SW10.png,SW6.png,SW1.png,SW8.png,235534
21620,21:14:20,9977,921474983,choice,choice4,0,1,1,25,1357,4563.76,114094,SW7.png,cereal_t.png,BC4.png,BC1.png,BC12.png,BC2.png,BC8.png,BC5.png,237447
21620,21:14:20,9977,921474983,switch,choice4,0,1,1,25,1357,4563.76,114094,BC4.png,cereal_t.png,BC4.png,BC1.png,BC12.png,BC2.png,BC8.png,BC5.png,239385
21620,21:14:20,9977,921474983,choice,choice2,0,1,1,26,3022,4504.5,117117,BC4.png,cereal_t.png,BC11.png,BC3.png,BC2.png,BC9.png,BC8.png,BC1.png,242961
21620,21:14:20,9977,921474983,switch,choice2,0,1,1,26,3022,4504.5,117117,BC11.png,cereal_t.png,BC11.png,BC3.png,BC2.png,BC9.png,BC8.png,BC1.png,245185
21620,21:14:20,9977,921474983,choice,choice1,1,1,0,27,5392,4537.407407,122510,BC11.png,yog_t.png,Y9.png,Y1.png,Y10.png,Y12.png,Y2.png,Y3.png,251130
21620,21:14:20,9977,921474983,choice,choice1,1,1,0,28,4551,4537.928571,127062,BC11.png,yog_t.png,Y8.png,Y1.png,Y3.png,Y12.png,Y10.png,Y2.png,256238
21620,21:14:20,9977,921474983,choice,choice2,0,1,1,29,5111,4557.724138,132174,BC11.png,crisps_t.png,C3.png,C10.png,C4.png,C2.png,C9.png,C6.png,261914
21620,21:14:20,9977,921474983,switch,choice2,0,0,1,29,5111,4557.724138,132174,C3.png,crisps_t.png,C3.png,C10.png,C4.png,C2.png,C9.png,C6.png,263600
21620,21:14:20,9977,921474983,choice,choice4,0,0,1,30,4859,4567.8,137034,C3.png,sand_t.png,SW7.png,SW9.png,SW4.png,SW6.png,SW8.png,SW11.png,269011
21620,21:14:20,9977,921474983,switch,choice4,0,0,1,30,4859,4567.8,137034,SW7.png,sand_t.png,SW7.png,SW9.png,SW4.png,SW6.png,SW8.png,SW11.png,271336
22620,22:35:10,9835,36943103,choice,choice1,1,0,0,1,21138,21139,21139,RM8.png,crisps_t.png,C3.png,C10.png,C4.png,C6.png,C2.png,C7.png,69865
22620,22:35:10,9835,36943103,choice,choice3,0,0,1,2,22889,22014.5,44029,RM8.png,cereal_t.png,BC6.png,BC9.png,BC12.png,BC2.png,BC5.png,BC8.png,93331
22620,22:35:10,9835,36943103,switch,choice3,0,1,1,2,22889,22014.5,44029,BC6.png,cereal_t.png,BC6.png,BC9.png,BC12.png,BC2.png,BC5.png,BC8.png,100513
22620,22:35:10,9835,36943103,choice,choice1,1,1,0,3,15518,19849.33333,59548,BC6.png,soup_t.png,S9.png,S12.png,S6.png,S1.png,S4.png,S3.png,116608
22620,22:35:10,9835,36943103,choice,choice2,0,1,1,4,16215,18941,75764,BC6.png,crisps_t.png,C3.png,C10.png,C4.png,C2.png,C9.png,C6.png,133405
22620,22:35:10,9835,36943103,switch,choice2,0,0,1,4,16215,18941,75764,C3.png,crisps_t.png,C3.png,C10.png,C4.png,C2.png,C9.png,C6.png,136823
22620,22:35:10,9835,36943103,choice,choice2,0,0,1,5,11403,17433.6,87168,C3.png,crisps_t.png,C3.png,C5.png,C7.png,C2.png,C11.png,C12.png,148792
22620,22:35:10,9835,36943103,switch,choice2,0,1,1,5,11403,17433.6,87168,C3.png,crisps_t.png,C3.png,C5.png,C7.png,C2.png,C11.png,C12.png,152996
22620,22:35:10,9835,36943103,choice,choice1,1,1,0,6,2812,14996.83333,89981,C3.png,yog_t.png,Y8.png,Y4.png,Y3.png,Y2.png,Y10.png,Y11.png,156384
22620,22:35:10,9835,36943103,choice,choice2,0,1,1,7,6656,13805.42857,96638,C3.png,ready_t.png,RM8.png,RM11.png,RM1.png,RM5.png,RM13.png,RM2.png,163613
22620,22:35:10,9835,36943103,switch,choice2,0,1,1,7,6656,13805.42857,96638,RM8.png,ready_t.png,RM8.png,RM11.png,RM1.png,RM5.png,RM13.png,RM2.png,165927
22620,22:35:10,9835,36943103,choice,choice4,0,1,1,8,6563,12900.25,103202,RM8.png,cereal_t.png,BC4.png,BC1.png,BC12.png,BC2.png,BC8.png,BC5.png,173050
22620,22:35:10,9835,36943103,switch,choice4,0,0,1,8,6563,12900.25,103202,BC4.png,cereal_t.png,BC4.png,BC1.png,BC12.png,BC2.png,BC8.png,BC5.png,175841
22620,22:35:10,9835,36943103,choice,choice3,0,0,1,9,11048,12694.55556,114251,BC4.png,sand_t.png,SW7.png,SW9.png,SW4.png,SW6.png,SW8.png,SW11.png,187469
22620,22:35:10,9835,36943103,switch,choice3,0,0,1,9,11048,12694.55556,114251,SW7.png,sand_t.png,SW7.png,SW9.png,SW4.png,SW6.png,SW8.png,SW11.png,189918
22620,22:35:10,9835,36943103,choice,choice4,0,0,1,10,5028,11928,119280,SW7.png,sand_t.png,SW7.png,SW9.png,SW3.png,SW6.png,SW1.png,SW10.png,195514
22620,22:35:10,9835,36943103,switch,choice4,0,0,1,10,5028,11928,119280,SW7.png,sand_t.png,SW7.png,SW9.png,SW3.png,SW6.png,SW1.png,SW10.png,197993
22620,22:35:10,9835,36943103,choice,choice2,0,0,1,11,16660,12358.27273,135941,SW7.png,ready_t.png,RM7.png,RM11.png,RM1.png,RM5.png,RM13.png,RM2.png,215230
22620,22:35:10,9835,36943103,switch,choice2,0,1,1,11,16660,12358.27273,135941,RM7.png,ready_t.png,RM7.png,RM11.png,RM1.png,RM5.png,RM13.png,RM2.png,217808
22620,22:35:10,9835,36943103,choice,choice1,1,1,0,12,3801,11645.25,139743,RM7.png,ready_t.png,RM9.png,RM4.png,RM11.png,RM5.png,RM2.png,RM12.png,222170
22620,22:35:10,9835,36943103,choice,choice4,0,1,1,13,8681,11417.30769,148425,RM7.png,sand_t.png,SW7.png,SW11.png,SW10.png,SW6.png,SW1.png,SW8.png,231417
22620,22:35:10,9835,36943103,switch,choice4,0,0,1,13,8681,11417.30769,148425,SW7.png,sand_t.png,SW7.png,SW11.png,SW10.png,SW6.png,SW1.png,SW8.png,233813
22620,22:35:10,9835,36943103,choice,choice3,0,0,1,14,7284,11122.14286,155710,SW7.png,soup_t.png,S9.png,S12.png,S5.png,S3.png,S6.png,S13.png,241669
22620,22:35:10,9835,36943103,switch,choice3,0,0,1,14,7284,11122.14286,155710,S9.png,soup_t.png,S9.png,S12.png,S5.png,S3.png,S6.png,S13.png,243793
22620,22:35:10,9835,36943103,choice,choice1,1,0,0,15,2374,10539,158085,S9.png,crisps_t.png,C5.png,C10.png,C8.png,C9.png,C2.png,C6.png,246741
22620,22:35:10,9835,36943103,breaktime,choice1,1,0,0,15,2374,10539,158085,S9.png,crisps_t.png,C5.png,C10.png,C8.png,C9.png,C2.png,C6.png,248972
22620,22:35:10,9835,36943103,choice,choice1,1,0,0,16,4445,10158.1875,162531,S9.png,crisps_t.png,C3.png,C7.png,C4.png,C12.png,C6.png,C9.png,253985
22620,22:35:10,9835,36943103,choice,choice2,0,0,1,17,5588,9889.411765,168120,S9.png,cereal_t.png,BC11.png,BC3.png,BC2.png,BC9.png,BC8.png,BC1.png,260139
22620,22:35:10,9835,36943103,switch,choice2,0,0,1,17,5588,9889.411765,168120,BC11.png,cereal_t.png,BC11.png,BC3.png,BC2.png,BC9.png,BC8.png,BC1.png,263617
22620,22:35:10,9835,36943103,choice,choice1,1,0,0,18,3659,9543.333333,171780,BC11.png,yog_t.png,Y9.png,Y1.png,Y10.png,Y12.png,Y2.png,Y3.png,267843
22620,22:35:10,9835,36943103,choice,choice6,0,0,1,19,8045,9464.526316,179826,BC11.png,sand_t.png,SW7.png,SW9.png,SW8.png,SW6.png,SW1.png,SW11.png,276462
22620,22:35:10,9835,36943103,switch,choice6,0,0,1,19,8045,9464.526316,179826,SW7.png,sand_t.png,SW7.png,SW9.png,SW8.png,SW6.png,SW1.png,SW11.png,284118
22620,22:35:10,9835,36943103,choice,choice1,1,0,0,20,6995,9341.1,186822,SW7.png,yog_t.png,Y6.png,Y13.png,Y12.png,Y10.png,Y2.png,Y3.png,291694
22620,22:35:10,9835,36943103,choice,choice1,1,0,0,21,2885,9033.714286,189708,SW7.png,ready_t.png,RM9.png,RM4.png,RM12.png,RM5.png,RM13.png,RM8.png,295150
22620,22:35:10,9835,36943103,choice,choice1,1,0,0,22,9137,9038.454545,198846,SW7.png,yog_t.png,Y8.png,Y12.png,Y2.png,Y11.png,Y10.png,Y3.png,304851
22620,22:35:10,9835,36943103,choice,choice3,0,0,1,23,9473,9057.391304,208320,SW7.png,soup_t.png,S9.png,S12.png,S5.png,S13.png,S3.png,S7.png,314904
22620,22:35:10,9835,36943103,switch,choice3,0,0,1,23,9473,9057.391304,208320,S9.png,soup_t.png,S9.png,S12.png,S5.png,S13.png,S3.png,S7.png,317059
22620,22:35:10,9835,36943103,choice,choice3,0,0,1,24,4003,8846.833333,212324,S9.png,cereal_t.png,BC5.png,BC1.png,BC3.png,BC2.png,BC8.png,BC9.png,321633
22620,22:35:10,9835,36943103,switch,choice3,0,0,1,24,4003,8846.833333,212324,BC5.png,cereal_t.png,BC5.png,BC1.png,BC3.png,BC2.png,BC8.png,BC9.png,323917
22620,22:35:10,9835,36943103,choice,choice2,0,0,1,25,7239,8782.56,219564,BC5.png,cereal_t.png,BC11.png,BC3.png,BC2.png,BC12.png,BC8.png,BC1.png,331719
22620,22:35:10,9835,36943103,switch,choice2,0,0,1,25,7239,8782.56,219564,BC11.png,cereal_t.png,BC11.png,BC3.png,BC2.png,BC12.png,BC8.png,BC1.png,333927
22620,22:35:10,9835,36943103,choice,choice2,0,0,1,26,4503,8618,224068,BC11.png,ready_t.png,RM3.png,RM11.png,RM1.png,RM5.png,RM13.png,RM2.png,338999
22620,22:35:10,9835,36943103,switch,choice2,0,0,1,26,4503,8618,224068,RM3.png,ready_t.png,RM3.png,RM11.png,RM1.png,RM5.png,RM13.png,RM2.png,340550
22620,22:35:10,9835,36943103,choice,choice2,0,0,1,27,6235,8529.777778,230304,RM3.png,soup_t.png,S9.png,S5.png,S6.png,S10.png,S13.png,S3.png,347348
22620,22:35:10,9835,36943103,switch,choice2,0,0,1,27,6235,8529.777778,230304,S9.png,soup_t.png,S9.png,S5.png,S6.png,S10.png,S13.png,S3.png,348875
22620,22:35:10,9835,36943103,choice,choice2,0,0,1,28,5910,8436.25,236215,S9.png,ready_t.png,RM7.png,RM11.png,RM1.png,RM5.png,RM13.png,RM2.png,355356
22620,22:35:10,9835,36943103,switch,choice2,0,1,1,28,5910,8436.25,236215,RM7.png,ready_t.png,RM7.png,RM11.png,RM1.png,RM5.png,RM13.png,RM2.png,356929
22620,22:35:10,9835,36943103,choice,choice4,0,1,1,29,8068,8423.586207,244284,RM7.png,sand_t.png,SW7.png,SW11.png,SW10.png,SW6.png,SW1.png,SW8.png,365563
22620,22:35:10,9835,36943103,switch,choice4,0,0,1,29,8068,8423.586207,244284,SW7.png,sand_t.png,SW7.png,SW11.png,SW10.png,SW6.png,SW1.png,SW8.png,368384
22620,22:35:10,9835,36943103,choice,choice2,0,0,1,30,6918,8373.433333,251203,SW7.png,cereal_t.png,BC11.png,BC3.png,BC2.png,BC12.png,BC8.png,BC1.png,375862
22620,22:35:10,9835,36943103,switch,choice2,0,0,1,30,6918,8373.433333,251203,BC11.png,cereal_t.png,BC11.png,BC3.png,BC2.png,BC12.png,BC8.png,BC1.png,377367
22820,17:11:01,9743,549180646,choice,choice4,0,0,1,1,22817,22818,22818,RM8.png,cereal_t.png,BC4.png,BC1.png,BC12.png,BC2.png,BC8.png,BC5.png,224545
22820,17:11:01,9743,549180646,switch,choice4,0,0,1,1,22817,22818,22818,BC4.png,cereal_t.png,BC4.png,BC1.png,BC12.png,BC2.png,BC8.png,BC5.png,233272
22820,17:11:01,9743,549180646,choice,choice1,1,0,0,2,16557,19688,39376,BC4.png,crisps_t.png,C5.png,C10.png,C8.png,C9.png,C2.png,C6.png,250385
22820,17:11:01,9743,549180646,choice,choice4,0,0,1,3,18769,19382,58146,BC4.png,sand_t.png,SW7.png,SW9.png,SW3.png,SW6.png,SW1.png,SW10.png,269713
22820,17:11:01,9743,549180646,switch,choice4,0,1,1,3,18769,19382,58146,SW7.png,sand_t.png,SW7.png,SW9.png,SW3.png,SW6.png,SW1.png,SW10.png,272593
22820,17:11:01,9743,549180646,choice,choice1,1,1,0,4,11104,17312.75,69251,SW7.png,soup_t.png,S9.png,S12.png,S6.png,S1.png,S4.png,S3.png,284264
22820,17:11:01,9743,549180646,choice,choice4,0,1,1,5,10909,16032.2,80161,SW7.png,sand_t.png,SW7.png,SW9.png,SW4.png,SW6.png,SW8.png,SW11.png,295736
22820,17:11:01,9743,549180646,switch,choice4,0,1,1,5,10909,16032.2,80161,SW7.png,sand_t.png,SW7.png,SW9.png,SW4.png,SW6.png,SW8.png,SW11.png,296993
22820,17:11:01,9743,549180646,choice,choice1,1,1,0,6,11136,15216.33333,91298,SW7.png,yog_t.png,Y8.png,Y1.png,Y3.png,Y12.png,Y10.png,Y2.png,308697
22820,17:11:01,9743,549180646,choice,choice2,0,1,1,7,4300,13657,95599,SW7.png,crisps_t.png,C3.png,C5.png,C7.png,C2.png,C11.png,C12.png,313560
22820,17:11:01,9743,549180646,switch,choice2,0,1,1,7,4300,13657,95599,C3.png,crisps_t.png,C3.png,C5.png,C7.png,C2.png,C11.png,C12.png,314937
22820,17:11:01,9743,549180646,choice,choice1,1,1,0,8,6811,12801.375,102411,C3.png,ready_t.png,RM8.png,RM11.png,RM1.png,RM5.png,RM13.png,RM2.png,322304
22820,17:11:01,9743,549180646,choice,choice1,1,1,0,9,6244,12072.88889,108656,C3.png,soup_t.png,S9.png,S12.png,S13.png,S7.png,S3.png,S4.png,329105
22820,17:11:01,9743,549180646,choice,choice4,0,1,1,10,4020,11267.7,112677,C3.png,sand_t.png,SW7.png,SW9.png,SW8.png,SW6.png,SW1.png,SW11.png,333680
22820,17:11:01,9743,549180646,switch,choice4,0,1,1,10,4020,11267.7,112677,SW7.png,sand_t.png,SW7.png,SW9.png,SW8.png,SW6.png,SW1.png,SW11.png,335097
22820,17:11:01,9743,549180646,choice,choice1,1,1,0,11,6092,10797.27273,118770,SW7.png,crisps_t.png,C3.png,C7.png,C4.png,C12.png,C6.png,C9.png,341753
22820,17:11:01,9743,549180646,choice,choice4,0,1,1,12,4034,10233.75,122805,SW7.png,cereal_t.png,BC11.png,BC3.png,BC2.png,BC12.png,BC8.png,BC1.png,346344
22820,17:11:01,9743,549180646,switch,choice4,0,1,1,12,4034,10233.75,122805,BC11.png,cereal_t.png,BC11.png,BC3.png,BC2.png,BC12.png,BC8.png,BC1.png,348177
22820,17:11:01,9743,549180646,choice,choice1,1,1,0,13,1665,9574.692308,124471,BC11.png,ready_t.png,RM9.png,RM4.png,RM11.png,RM5.png,RM2.png,RM12.png,350409
22820,17:11:01,9743,549180646,choice,choice2,0,1,1,14,3376,9132,127848,BC11.png,cereal_t.png,BC11.png,BC3.png,BC2.png,BC9.png,BC8.png,BC1.png,354337
22820,17:11:01,9743,549180646,switch,choice2,0,1,1,14,3376,9132,127848,BC11.png,cereal_t.png,BC11.png,BC3.png,BC2.png,BC9.png,BC8.png,BC1.png,355577
22820,17:11:01,9743,549180646,choice,choice1,1,1,0,15,4106,8797,131955,BC11.png,yog_t.png,Y9.png,Y1.png,Y10.png,Y12.png,Y2.png,Y3.png,360233
22820,17:11:01,9743,549180646,breaktime,choice1,1,1,0,15,4106,8797,131955,BC11.png,yog_t.png,Y9.png,Y1.png,Y10.png,Y12.png,Y2.png,Y3.png,557001
22820,17:11:01,9743,549180646,choice,choice1,1,1,0,16,3208,8447.75,135164,BC11.png,soup_t.png,S9.png,S12.png,S5.png,S3.png,S6.png,S13.png,560768
22820,17:11:01,9743,549180646,choice,choice4,0,1,1,17,3289,8144.352941,138454,BC11.png,sand_t.png,SW7.png,SW9.png,SW4.png,SW6.png,SW3.png,SW5.png,564616
22820,17:11:01,9743,549180646,switch,choice4,0,0,1,17,3289,8144.352941,138454,SW7.png,sand_t.png,SW7.png,SW9.png,SW4.png,SW6.png,SW3.png,SW5.png,567265
22820,17:11:01,9743,549180646,choice,choice2,0,0,1,18,2253,7817.111111,140708,SW7.png,crisps_t.png,C3.png,C10.png,C4.png,C6.png,C2.png,C7.png,570080
22820,17:11:01,9743,549180646,switch,choice2,0,1,1,18,2253,7817.111111,140708,C3.png,crisps_t.png,C3.png,C10.png,C4.png,C6.png,C2.png,C7.png,571105
22820,17:11:01,9743,549180646,choice,choice4,0,1,1,19,636,7439.210526,141345,C3.png,yog_t.png,Y8.png,Y4.png,Y3.png,Y2.png,Y10.png,Y11.png,572297
22820,17:11:01,9743,549180646,choice,choice1,1,1,0,20,4226,7278.6,145572,C3.png,ready_t.png,RM9.png,RM4.png,RM12.png,RM5.png,RM13.png,RM8.png,587120
22820,17:11:01,9743,549180646,choice,choice4,0,1,1,21,5619,7199.619048,151192,C3.png,cereal_t.png,BC6.png,BC9.png,BC12.png,BC2.png,BC5.png,BC8.png,593297
22820,17:11:01,9743,549180646,switch,choice4,0,1,1,21,5619,7199.619048,151192,BC6.png,cereal_t.png,BC6.png,BC9.png,BC12.png,BC2.png,BC5.png,BC8.png,595481
22820,17:11:01,9743,549180646,choice,choice4,0,1,1,22,9356,7297.681818,160549,BC6.png,sand_t.png,SW7.png,SW11.png,SW10.png,SW6.png,SW1.png,SW8.png,605400
22820,17:11:01,9743,549180646,switch,choice4,0,0,1,22,9356,7297.681818,160549,SW7.png,sand_t.png,SW7.png,SW11.png,SW10.png,SW6.png,SW1.png,SW8.png,608625
22820,17:11:01,9743,549180646,choice,choice2,0,0,1,23,5519,7220.391304,166069,SW7.png,ready_t.png,RM3.png,RM11.png,RM1.png,RM5.png,RM13.png,RM2.png,614696
22820,17:11:01,9743,549180646,switch,choice2,0,1,1,23,5519,7220.391304,166069,RM3.png,ready_t.png,RM3.png,RM11.png,RM1.png,RM5.png,RM13.png,RM2.png,616064
22820,17:11:01,9743,549180646,choice,choice1,1,1,0,24,3717,7074.458333,169787,RM3.png,yog_t.png,Y6.png,Y13.png,Y12.png,Y10.png,Y2.png,Y3.png,620344
22820,17:11:01,9743,549180646,choice,choice3,0,1,1,25,5538,7013.04,175326,RM3.png,cereal_t.png,BC5.png,BC1.png,BC3.png,BC2.png,BC8.png,BC9.png,626433
22820,17:11:01,9743,549180646,switch,choice3,0,1,1,25,5538,7013.04,175326,BC5.png,cereal_t.png,BC5.png,BC1.png,BC3.png,BC2.png,BC8.png,BC9.png,627808
22820,17:11:01,9743,549180646,choice,choice1,1,1,0,26,3935,6894.692308,179262,BC5.png,yog_t.png,Y8.png,Y12.png,Y2.png,Y11.png,Y10.png,Y3.png,632296
22820,17:11:01,9743,549180646,choice,choice1,1,1,0,27,3507,6769.259259,182770,BC5.png,ready_t.png,RM7.png,RM11.png,RM1.png,RM5.png,RM13.png,RM2.png,636368
22820,17:11:01,9743,549180646,choice,choice1,1,1,0,28,4457,6686.714286,187228,BC5.png,crisps_t.png,C3.png,C7.png,C4.png,C12.png,C6.png,C9.png,641384
22820,17:11:01,9743,549180646,choice,choice2,0,1,1,29,2593,6545.586207,189822,BC5.png,cereal_t.png,BC11.png,BC3.png,BC2.png,BC12.png,BC8.png,BC1.png,644537
22820,17:11:01,9743,549180646,switch,choice2,0,1,1,29,2593,6545.586207,189822,BC11.png,cereal_t.png,BC11.png,BC3.png,BC2.png,BC12.png,BC8.png,BC1.png,646072
22820,17:11:01,9743,549180646,choice,choice1,1,1,0,30,10213,6667.866667,200036,BC11.png,yog_t.png,Y9.png,Y1.png,Y10.png,Y12.png,Y2.png,Y3.png,656841
31220,21:33:34,8812,268480609,choice,choice1,1,0,0,1,8681,8682,8682,RM8.png,yog_t.png,Y8.png,Y1.png,Y3.png,Y12.png,Y10.png,Y2.png,600123
31220,21:33:34,8812,268480609,choice,choice1,1,0,0,2,13622,11152.5,22305,RM8.png,ready_t.png,RM3.png,RM11.png,RM1.png,RM5.png,RM13.png,RM2.png,614312
31220,21:33:34,8812,268480609,choice,choice3,0,0,1,3,15042,12449.33333,37348,RM8.png,cereal_t.png,BC6.png,BC9.png,BC12.png,BC2.png,BC5.png,BC8.png,629913
31220,21:33:34,8812,268480609,switch,choice3,0,1,1,3,15042,12449.33333,37348,BC6.png,cereal_t.png,BC6.png,BC9.png,BC12.png,BC2.png,BC5.png,BC8.png,634965
31220,21:33:34,8812,268480609,choice,choice1,1,1,0,4,9282,11657.75,46631,BC6.png,ready_t.png,RM9.png,RM4.png,RM11.png,RM5.png,RM2.png,RM12.png,644816
31220,21:33:34,8812,268480609,choice,choice1,1,1,0,5,11581,11642.6,58213,BC6.png,crisps_t.png,C5.png,C10.png,C8.png,C9.png,C2.png,C6.png,656964
31220,21:33:34,8812,268480609,choice,choice1,1,1,0,6,11018,11538.66667,69232,BC6.png,crisps_t.png,C3.png,C10.png,C4.png,C2.png,C9.png,C6.png,668550
31220,21:33:34,8812,268480609,choice,choice2,0,1,1,7,10198,11347.28571,79431,BC6.png,yog_t.png,Y6.png,Y13.png,Y12.png,Y10.png,Y2.png,Y3.png,679312
31220,21:33:34,8812,268480609,switch,choice2,0,0,1,7,10198,11347.28571,79431,Y6.png,yog_t.png,Y6.png,Y13.png,Y12.png,Y10.png,Y2.png,Y3.png,682617
31220,21:33:34,8812,268480609,choice,choice1,1,0,0,8,4924,10544.5,84356,Y6.png,crisps_t.png,C3.png,C7.png,C4.png,C12.png,C6.png,C9.png,688102
31220,21:33:34,8812,268480609,choice,choice4,0,0,1,9,23858,12023.88889,108215,Y6.png,sand_t.png,SW7.png,SW9.png,SW3.png,SW6.png,SW1.png,SW10.png,712520
31220,21:33:34,8812,268480609,switch,choice4,0,0,1,9,23858,12023.88889,108215,SW7.png,sand_t.png,SW7.png,SW9.png,SW3.png,SW6.png,SW1.png,SW10.png,715818
31220,21:33:34,8812,268480609,choice,choice2,0,0,1,10,7423,11563.9,115639,SW7.png,crisps_t.png,C3.png,C5.png,C7.png,C2.png,C11.png,C12.png,723797
31220,21:33:34,8812,268480609,switch,choice2,0,0,1,10,7423,11563.9,115639,C3.png,crisps_t.png,C3.png,C5.png,C7.png,C2.png,C11.png,C12.png,726203
31220,21:33:34,8812,268480609,choice,choice4,0,0,1,11,8065,11245.90909,123705,C3.png,sand_t.png,SW7.png,SW9.png,SW8.png,SW6.png,SW1.png,SW11.png,734837
31220,21:33:34,8812,268480609,switch,choice4,0,0,1,11,8065,11245.90909,123705,SW7.png,sand_t.png,SW7.png,SW9.png,SW8.png,SW6.png,SW1.png,SW11.png,736754
31220,21:33:34,8812,268480609,choice,choice1,1,0,0,12,4457,10680.25,128163,SW7.png,ready_t.png,RM8.png,RM11.png,RM1.png,RM5.png,RM13.png,RM2.png,741777
31220,21:33:34,8812,268480609,choice,choice2,0,0,1,13,3310,10113.38462,131474,SW7.png,yog_t.png,Y9.png,Y1.png,Y10.png,Y12.png,Y2.png,Y3.png,745647
31220,21:33:34,8812,268480609,switch,choice2,0,0,1,13,3310,10113.38462,131474,Y9.png,yog_t.png,Y9.png,Y1.png,Y10.png,Y12.png,Y2.png,Y3.png,747401
31220,21:33:34,8812,268480609,choice,choice4,0,0,1,14,24608,11148.78571,156083,Y9.png,sand_t.png,SW7.png,SW9.png,SW4.png,SW6.png,SW8.png,SW11.png,772578
31220,21:33:34,8812,268480609,switch,choice4,0,0,1,14,24608,11148.78571,156083,SW7.png,sand_t.png,SW7.png,SW9.png,SW4.png,SW6.png,SW8.png,SW11.png,775043
31220,21:33:34,8812,268480609,choice,choice1,1,0,0,15,52281,13891,208365,SW7.png,ready_t.png,RM7.png,RM11.png,RM1.png,RM5.png,RM13.png,RM2.png,827880
31220,21:33:34,8812,268480609,breaktime,choice1,1,0,0,15,52281,13891,208365,SW7.png,ready_t.png,RM7.png,RM11.png,RM1.png,RM5.png,RM13.png,RM2.png,831810
31220,21:33:34,8812,268480609,choice,choice1,1,0,0,16,9126,13593.25,217492,SW7.png,soup_t.png,S9.png,S12.png,S6.png,S1.png,S4.png,S3.png,841500
31220,21:33:34,8812,268480609,choice,choice2,0,0,1,17,9465,13350.47059,226958,SW7.png,sand_t.png,SW7.png,SW11.png,SW10.png,SW6.png,SW1.png,SW8.png,851521
31220,21:33:34,8812,268480609,switch,choice2,0,0,1,17,9465,13350.47059,226958,SW7.png,sand_t.png,SW7.png,SW11.png,SW10.png,SW6.png,SW1.png,SW8.png,854601
31220,21:33:34,8812,268480609,choice,choice1,1,0,0,18,7395,13019.66667,234354,SW7.png,yog_t.png,Y8.png,Y12.png,Y2.png,Y11.png,Y10.png,Y3.png,862549
31220,21:33:34,8812,268480609,choice,choice3,0,0,1,19,6049,12652.84211,240404,SW7.png,cereal_t.png,BC4.png,BC1.png,BC12.png,BC2.png,BC8.png,BC5.png,869152
31220,21:33:34,8812,268480609,switch,choice3,0,0,1,19,6049,12652.84211,240404,BC4.png,cereal_t.png,BC4.png,BC1.png,BC12.png,BC2.png,BC8.png,BC5.png,870737
31220,21:33:34,8812,268480609,choice,choice1,1,0,0,20,4495,12245,244900,BC4.png,ready_t.png,RM9.png,RM4.png,RM12.png,RM5.png,RM13.png,RM8.png,875796
31220,21:33:34,8812,268480609,choice,choice3,0,0,1,21,5703,11933.52381,250604,BC4.png,cereal_t.png,BC11.png,BC3.png,BC2.png,BC12.png,BC8.png,BC1.png,882054
31220,21:33:34,8812,268480609,switch,choice3,0,0,1,21,5703,11933.52381,250604,BC11.png,cereal_t.png,BC11.png,BC3.png,BC2.png,BC12.png,BC8.png,BC1.png,883964
31220,21:33:34,8812,268480609,choice,choice2,0,0,1,22,8988,11799.68182,259593,BC11.png,yog_t.png,Y8.png,Y4.png,Y3.png,Y2.png,Y10.png,Y11.png,893521
31220,21:33:34,8812,268480609,switch,choice2,0,0,1,22,8988,11799.68182,259593,Y8.png,yog_t.png,Y8.png,Y4.png,Y3.png,Y2.png,Y10.png,Y11.png,895136
31220,21:33:34,8812,268480609,choice,choice2,0,0,1,23,4089,11464.47826,263683,Y8.png,soup_t.png,S9.png,S5.png,S6.png,S10.png,S13.png,S3.png,899788
31220,21:33:34,8812,268480609,switch,choice2,0,0,1,23,4089,11464.47826,263683,S9.png,soup_t.png,S9.png,S5.png,S6.png,S10.png,S13.png,S3.png,901092
31220,21:33:34,8812,268480609,choice,choice3,0,0,1,24,1650,11055.58333,265334,S9.png,cereal_t.png,BC5.png,BC1.png,BC3.png,BC2.png,BC8.png,BC9.png,903298
31220,21:33:34,8812,268480609,switch,choice3,0,0,1,24,1650,11055.58333,265334,BC5.png,cereal_t.png,BC5.png,BC1.png,BC3.png,BC2.png,BC8.png,BC9.png,907118
31220,21:33:34,8812,268480609,choice,choice1,1,0,0,25,13478,11152.52,278813,BC5.png,soup_t.png,S9.png,S12.png,S5.png,S13.png,S3.png,S7.png,921158
31220,21:33:34,8812,268480609,choice,choice3,0,0,1,26,4592,10900.23077,283406,BC5.png,soup_t.png,S9.png,S12.png,S5.png,S3.png,S6.png,S13.png,926303
31220,21:33:34,8812,268480609,switch,choice3,0,0,1,26,4592,10900.23077,283406,S9.png,soup_t.png,S9.png,S12.png,S5.png,S3.png,S6.png,S13.png,928587
31220,21:33:34,8812,268480609,choice,choice1,1,0,0,27,6125,10723.40741,289532,S9.png,soup_t.png,S9.png,S12.png,S13.png,S7.png,S3.png,S4.png,935269
31220,21:33:34,8812,268480609,choice,choice4,0,0,1,28,1642,10399.10714,291175,S9.png,cereal_t.png,BC6.png,BC9.png,BC12.png,BC2.png,BC5.png,BC8.png,937468
31220,21:33:34,8812,268480609,switch,choice4,0,0,1,28,1642,10399.10714,291175,BC6.png,cereal_t.png,BC6.png,BC9.png,BC12.png,BC2.png,BC5.png,BC8.png,939047
31220,21:33:34,8812,268480609,choice,choice1,1,0,0,29,200207,16944.24138,491383,BC6.png,ready_t.png,RM8.png,RM11.png,RM1.png,RM5.png,RM13.png,RM2.png,1139816
31220,21:33:34,8812,268480609,choice,choice1,1,0,0,30,4887,16542.36667,496271,BC6.png,ready_t.png,RM7.png,RM11.png,RM1.png,RM5.png,RM13.png,RM2.png,1145267
40920,05:13:14,9848,438044570,choice,choice2,0,0,1,1,20335,20336,20336,RM8.png,sand_t.png,SW7.png,SW9.png,SW3.png,SW6.png,SW1.png,SW10.png,102774
40920,05:13:14,9848,438044570,switch,choice2,0,1,1,1,20335,20336,20336,SW7.png,sand_t.png,SW7.png,SW9.png,SW3.png,SW6.png,SW1.png,SW10.png,108984
40920,05:13:14,9848,438044570,choice,choice3,0,1,1,2,15707,18022,36044,SW7.png,soup_t.png,S9.png,S12.png,S13.png,S7.png,S3.png,S4.png,125247
40920,05:13:14,9848,438044570,switch,choice3,0,0,1,2,15707,18022,36044,S9.png,soup_t.png,S9.png,S12.png,S13.png,S7.png,S3.png,S4.png,127141
40920,05:13:14,9848,438044570,choice,choice4,0,0,1,3,1906,12650.33333,37951,S9.png,soup_t.png,S9.png,S12.png,S5.png,S3.png,S6.png,S13.png,129613
40920,05:13:14,9848,438044570,switch,choice4,0,1,1,3,1906,12650.33333,37951,S9.png,soup_t.png,S9.png,S12.png,S5.png,S3.png,S6.png,S13.png,130784
40920,05:13:14,9848,438044570,choice,choice1,1,1,0,4,18688,14160,56640,S9.png,ready_t.png,RM9.png,RM4.png,RM12.png,RM5.png,RM13.png,RM8.png,150029
40920,05:13:14,9848,438044570,choice,choice4,0,1,1,5,3695,12067.2,60336,S9.png,sand_t.png,SW7.png,SW9.png,SW4.png,SW6.png,SW3.png,SW5.png,154287
40920,05:13:14,9848,438044570,switch,choice4,0,0,1,5,3695,12067.2,60336,SW7.png,sand_t.png,SW7.png,SW9.png,SW4.png,SW6.png,SW3.png,SW5.png,158509
40920,05:13:14,9848,438044570,choice,choice2,0,0,1,6,9744,11680.16667,70081,SW7.png,crisps_t.png,C3.png,C5.png,C7.png,C2.png,C11.png,C12.png,168820
40920,05:13:14,9848,438044570,switch,choice2,0,0,1,6,9744,11680.16667,70081,C3.png,crisps_t.png,C3.png,C5.png,C7.png,C2.png,C11.png,C12.png,171337
40920,05:13:14,9848,438044570,choice,choice2,0,0,1,7,11794,11696.57143,81876,C3.png,cereal_t.png,BC11.png,BC3.png,BC2.png,BC12.png,BC8.png,BC1.png,183687
40920,05:13:14,9848,438044570,switch,choice2,0,0,1,7,11794,11696.57143,81876,BC11.png,cereal_t.png,BC11.png,BC3.png,BC2.png,BC12.png,BC8.png,BC1.png,186702
40920,05:13:14,9848,438044570,choice,choice4,0,0,1,8,3223,10637.5,85100,BC11.png,crisps_t.png,C3.png,C10.png,C4.png,C6.png,C2.png,C7.png,190483
40920,05:13:14,9848,438044570,switch,choice4,0,0,1,8,3223,10637.5,85100,C3.png,crisps_t.png,C3.png,C10.png,C4.png,C6.png,C2.png,C7.png,191625
40920,05:13:14,9848,438044570,choice,choice2,0,0,1,9,3916,9890.777778,89017,C3.png,crisps_t.png,C5.png,C10.png,C8.png,C9.png,C2.png,C6.png,196093
40920,05:13:14,9848,438044570,switch,choice2,0,1,1,9,3916,9890.777778,89017,C5.png,crisps_t.png,C5.png,C10.png,C8.png,C9.png,C2.png,C6.png,197229
40920,05:13:14,9848,438044570,choice,choice1,1,1,0,10,3809,9282.7,92827,C5.png,ready_t.png,RM7.png,RM11.png,RM1.png,RM5.png,RM13.png,RM2.png,201602
40920,05:13:14,9848,438044570,choice,choice4,0,1,1,11,7627,9132.272727,100455,C5.png,yog_t.png,Y6.png,Y13.png,Y12.png,Y10.png,Y2.png,Y3.png,209787
40920,05:13:14,9848,438044570,switch,choice4,0,1,1,11,7627,9132.272727,100455,Y6.png,yog_t.png,Y6.png,Y13.png,Y12.png,Y10.png,Y2.png,Y3.png,211566
40920,05:13:14,9848,438044570,choice,choice4,0,1,1,12,1231,8473.916667,101687,Y6.png,soup_t.png,S9.png,S12.png,S5.png,S13.png,S3.png,S7.png,213359
40920,05:13:14,9848,438044570,switch,choice4,0,1,1,12,1231,8473.916667,101687,S9.png,soup_t.png,S9.png,S12.png,S5.png,S13.png,S3.png,S7.png,214993
40920,05:13:14,9848,438044570,choice,choice2,0,1,1,13,3982,8128.461538,105670,S9.png,ready_t.png,RM3.png,RM11.png,RM1.png,RM5.png,RM13.png,RM2.png,219527
40920,05:13:14,9848,438044570,switch,choice2,0,1,1,13,3982,8128.461538,105670,RM3.png,ready_t.png,RM3.png,RM11.png,RM1.png,RM5.png,RM13.png,RM2.png,220669
40920,05:13:14,9848,438044570,choice,choice1,1,1,0,14,7432,8078.785714,113103,RM3.png,yog_t.png,Y8.png,Y12.png,Y2.png,Y11.png,Y10.png,Y3.png,228660
40920,05:13:14,9848,438044570,choice,choice4,0,1,1,15,3584,7779.2,116688,RM3.png,cereal_t.png,BC4.png,BC1.png,BC12.png,BC2.png,BC8.png,BC5.png,232796
40920,05:13:14,9848,438044570,switch,choice4,0,0,1,15,3584,7779.2,116688,BC4.png,cereal_t.png,BC4.png,BC1.png,BC12.png,BC2.png,BC8.png,BC5.png,234466
40920,05:13:14,9848,438044570,breaktime,choice4,0,0,1,15,3584,7779.2,116688,BC4.png,cereal_t.png,BC4.png,BC1.png,BC12.png,BC2.png,BC8.png,BC5.png,237306
40920,05:13:14,9848,438044570,choice,choice1,1,0,0,16,2599,7455.5,119288,BC4.png,yog_t.png,Y8.png,Y1.png,Y3.png,Y12.png,Y10.png,Y2.png,240462
40920,05:13:14,9848,438044570,choice,choice2,0,0,1,17,3159,7202.823529,122448,BC4.png,ready_t.png,RM8.png,RM11.png,RM1.png,RM5.png,RM13.png,RM2.png,244171
40920,05:13:14,9848,438044570,switch,choice2,0,1,1,17,3159,7202.823529,122448,RM8.png,ready_t.png,RM8.png,RM11.png,RM1.png,RM5.png,RM13.png,RM2.png,245755
40920,05:13:14,9848,438044570,choice,choice6,0,1,1,18,2739,6954.888889,125188,RM8.png,sand_t.png,SW7.png,SW9.png,SW4.png,SW6.png,SW8.png,SW11.png,249052
40920,05:13:14,9848,438044570,switch,choice6,0,0,1,18,2739,6954.888889,125188,SW7.png,sand_t.png,SW7.png,SW9.png,SW4.png,SW6.png,SW8.png,SW11.png,250744
40920,05:13:14,9848,438044570,choice,choice1,1,0,0,19,13064,7276.473684,138253,SW7.png,crisps_t.png,C3.png,C10.png,C4.png,C2.png,C9.png,C6.png,264360
40920,05:13:14,9848,438044570,choice,choice1,1,0,0,20,5443,7184.85,143697,SW7.png,ready_t.png,RM9.png,RM4.png,RM11.png,RM5.png,RM2.png,RM12.png,270356
40920,05:13:14,9848,438044570,choice,choice1,1,0,0,21,2507,6962.142857,146205,SW7.png,yog_t.png,Y8.png,Y4.png,Y3.png,Y2.png,Y10.png,Y11.png,273421
40920,05:13:14,9848,438044570,choice,choice1,1,0,0,22,2969,6780.681818,149175,SW7.png,cereal_t.png,BC5.png,BC1.png,BC3.png,BC2.png,BC8.png,BC9.png,276950
40920,05:13:14,9848,438044570,choice,choice1,1,0,0,23,3152,6622.956522,152328,SW7.png,soup_t.png,S9.png,S5.png,S6.png,S10.png,S13.png,S3.png,280666
40920,05:13:14,9848,438044570,choice,choice1,1,0,0,24,2617,6456.083333,154946,SW7.png,sand_t.png,SW7.png,SW11.png,SW10.png,SW6.png,SW1.png,SW8.png,283848
40920,05:13:14,9848,438044570,choice,choice1,1,0,0,25,4223,6366.8,159170,SW7.png,soup_t.png,S9.png,S12.png,S6.png,S1.png,S4.png,S3.png,288620
40920,05:13:14,9848,438044570,choice,choice1,1,0,0,26,2880,6232.730769,162051,SW7.png,yog_t.png,Y9.png,Y1.png,Y10.png,Y12.png,Y2.png,Y3.png,292061
40920,05:13:14,9848,438044570,choice,choice1,1,0,0,27,4081,6153.074074,166133,SW7.png,crisps_t.png,C3.png,C7.png,C4.png,C12.png,C6.png,C9.png,296696
40920,05:13:14,9848,438044570,choice,choice1,1,0,0,28,4291,6086.607143,170425,SW7.png,yog_t.png,Y9.png,Y1.png,Y10.png,Y12.png,Y2.png,Y3.png,301539
40920,05:13:14,9848,438044570,choice,choice1,1,0,0,29,2224,5953.448276,172650,SW7.png,soup_t.png,S9.png,S12.png,S13.png,S7.png,S3.png,S4.png,304323
40920,05:13:14,9848,438044570,choice,choice1,1,0,0,30,2167,5827.266667,174818,SW7.png,ready_t.png,RM7.png,RM11.png,RM1.png,RM5.png,RM13.png,RM2.png,307048
40920,19:50:58,9759,203351666,choice,choice1,1,0,0,1,18580,18581,18581,RM8.png,soup_t.png,S9.png,S12.png,S6.png,S1.png,S4.png,S3.png,96733
40920,19:50:58,9759,203351666,choice,choice2,0,0,1,2,10891,14736.5,29473,RM8.png,yog_t.png,Y8.png,Y4.png,Y3.png,Y2.png,Y10.png,Y11.png,108191
40920,19:50:58,9759,203351666,switch,choice2,0,1,1,2,10891,14736.5,29473,Y8.png,yog_t.png,Y8.png,Y4.png,Y3.png,Y2.png,Y10.png,Y11.png,111482
40920,19:50:58,9759,203351666,choice,choice4,0,1,1,3,8208,12560.66667,37682,Y8.png,cereal_t.png,BC4.png,BC1.png,BC12.png,BC2.png,BC8.png,BC5.png,120251
40920,19:50:58,9759,203351666,switch,choice4,0,0,1,3,8208,12560.66667,37682,BC4.png,cereal_t.png,BC4.png,BC1.png,BC12.png,BC2.png,BC8.png,BC5.png,126058
40920,19:50:58,9759,203351666,choice,choice3,0,0,1,4,8133,11454,45816,BC4.png,crisps_t.png,C3.png,C10.png,C4.png,C6.png,C2.png,C7.png,134753
40920,19:50:58,9759,203351666,switch,choice3,0,0,1,4,8133,11454,45816,C3.png,crisps_t.png,C3.png,C10.png,C4.png,C6.png,C2.png,C7.png,136429
40920,19:50:58,9759,203351666,choice,choice1,1,0,0,5,11007,11364.8,56824,C3.png,ready_t.png,RM8.png,RM11.png,RM1.png,RM5.png,RM13.png,RM2.png,147998
40920,19:50:58,9759,203351666,choice,choice3,0,0,1,6,4452,10212.83333,61277,C3.png,cereal_t.png,BC5.png,BC1.png,BC3.png,BC2.png,BC8.png,BC9.png,153012
40920,19:50:58,9759,203351666,switch,choice3,0,0,1,6,4452,10212.83333,61277,BC5.png,cereal_t.png,BC5.png,BC1.png,BC3.png,BC2.png,BC8.png,BC9.png,154289
40920,19:50:58,9759,203351666,choice,choice6,0,0,1,7,12716,10570.57143,73994,BC5.png,sand_t.png,SW7.png,SW9.png,SW8.png,SW6.png,SW1.png,SW11.png,167559
40920,19:50:58,9759,203351666,switch,choice6,0,0,1,7,12716,10570.57143,73994,SW7.png,sand_t.png,SW7.png,SW9.png,SW8.png,SW6.png,SW1.png,SW11.png,168737
40920,19:50:58,9759,203351666,choice,choice2,0,0,1,8,18312,11538.375,92307,SW7.png,soup_t.png,S9.png,S12.png,S13.png,S7.png,S3.png,S4.png,187615
40920,19:50:58,9759,203351666,switch,choice2,0,0,1,8,18312,11538.375,92307,S9.png,soup_t.png,S9.png,S12.png,S13.png,S7.png,S3.png,S4.png,188597
40920,19:50:58,9759,203351666,choice,choice1,1,0,0,9,19069,12375.22222,111377,S9.png,crisps_t.png,C5.png,C10.png,C8.png,C9.png,C2.png,C6.png,208234
40920,19:50:58,9759,203351666,choice,choice1,1,0,0,10,14617,12599.5,125995,S9.png,ready_t.png,RM7.png,RM11.png,RM1.png,RM5.png,RM13.png,RM2.png,223412
40920,19:50:58,9759,203351666,choice,choice2,0,0,1,11,27997,13999.36364,153993,S9.png,cereal_t.png,BC11.png,BC3.png,BC2.png,BC12.png,BC8.png,BC1.png,251967
40920,19:50:58,9759,203351666,switch,choice2,0,1,1,11,27997,13999.36364,153993,BC11.png,cereal_t.png,BC11.png,BC3.png,BC2.png,BC12.png,BC8.png,BC1.png,256612
40920,19:50:58,9759,203351666,choice,choice1,1,1,0,12,9656,13637.5,163650,BC11.png,yog_t.png,Y8.png,Y12.png,Y2.png,Y11.png,Y10.png,Y3.png,266835
40920,19:50:58,9759,203351666,choice,choice1,1,1,0,13,9037,13283.69231,172688,BC11.png,yog_t.png,Y6.png,Y13.png,Y12.png,Y10.png,Y2.png,Y3.png,276438
40920,19:50:58,9759,203351666,choice,choice1,1,1,0,14,2664,12525.21429,175353,BC11.png,ready_t.png,RM9.png,RM4.png,RM12.png,RM5.png,RM13.png,RM8.png,279655
40920,19:50:58,9759,203351666,choice,choice2,0,1,1,15,8256,12240.66667,183610,BC11.png,yog_t.png,Y9.png,Y1.png,Y10.png,Y12.png,Y2.png,Y3.png,288471
40920,19:50:58,9759,203351666,switch,choice2,0,0,1,15,8256,12240.66667,183610,Y9.png,yog_t.png,Y9.png,Y1.png,Y10.png,Y12.png,Y2.png,Y3.png,290400
40920,19:50:58,9759,203351666,breaktime,choice2,0,0,1,15,8256,12240.66667,183610,Y9.png,yog_t.png,Y9.png,Y1.png,Y10.png,Y12.png,Y2.png,Y3.png,292292
40920,19:50:58,9759,203351666,choice,choice1,1,0,0,16,3158,11673.0625,186769,Y9.png,ready_t.png,RM9.png,RM4.png,RM11.png,RM5.png,RM2.png,RM12.png,296005
40920,19:50:58,9759,203351666,choice,choice1,1,0,0,17,14200,11821.76471,200970,Y9.png,ready_t.png,RM3.png,RM11.png,RM1.png,RM5.png,RM13.png,RM2.png,310770
40920,19:50:58,9759,203351666,choice,choice3,0,0,1,18,8339,11628.33333,209310,Y9.png,crisps_t.png,C3.png,C10.png,C4.png,C2.png,C9.png,C6.png,319669
40920,19:50:58,9759,203351666,switch,choice3,0,0,1,18,8339,11628.33333,209310,C3.png,crisps_t.png,C3.png,C10.png,C4.png,C2.png,C9.png,C6.png,321490
40920,19:50:58,9759,203351666,choice,choice6,0,0,1,19,11919,11643.68421,221230,C3.png,sand_t.png,SW7.png,SW9.png,SW4.png,SW6.png,SW8.png,SW11.png,333970
40920,19:50:58,9759,203351666,switch,choice6,0,1,1,19,11919,11643.68421,221230,SW7.png,sand_t.png,SW7.png,SW9.png,SW4.png,SW6.png,SW8.png,SW11.png,337554
40920,19:50:58,9759,203351666,choice,choice2,0,1,1,20,7510,11437.05,228741,SW7.png,soup_t.png,S9.png,S5.png,S6.png,S10.png,S13.png,S3.png,345617
40920,19:50:58,9759,203351666,switch,choice2,0,0,1,20,7510,11437.05,228741,S9.png,soup_t.png,S9.png,S5.png,S6.png,S10.png,S13.png,S3.png,346895
40920,19:50:58,9759,203351666,choice,choice2,0,0,1,21,8322,11288.7619,237064,S9.png,sand_t.png,SW7.png,SW11.png,SW10.png,SW6.png,SW1.png,SW8.png,355770
40920,19:50:58,9759,203351666,switch,choice2,0,0,1,21,8322,11288.7619,237064,SW7.png,sand_t.png,SW7.png,SW11.png,SW10.png,SW6.png,SW1.png,SW8.png,356850
40920,19:50:58,9759,203351666,choice,choice1,1,0,0,22,13244,11377.68182,250309,SW7.png,soup_t.png,S9.png,S12.png,S5.png,S3.png,S6.png,S13.png,370648
40920,19:50:58,9759,203351666,choice,choice2,0,0,1,23,5652,11128.78261,255962,SW7.png,yog_t.png,Y8.png,Y1.png,Y3.png,Y12.png,Y10.png,Y2.png,376851
40920,19:50:58,9759,203351666,switch,choice2,0,0,1,23,5652,11128.78261,255962,Y8.png,yog_t.png,Y8.png,Y1.png,Y3.png,Y12.png,Y10.png,Y2.png,377871
40920,19:50:58,9759,203351666,choice,choice4,0,0,1,24,2675,10776.58333,258638,Y8.png,cereal_t.png,BC6.png,BC9.png,BC12.png,BC2.png,BC5.png,BC8.png,381104
40920,19:50:58,9759,203351666,switch,choice4,0,0,1,24,2675,10776.58333,258638,BC6.png,cereal_t.png,BC6.png,BC9.png,BC12.png,BC2.png,BC5.png,BC8.png,383825
40920,19:50:58,9759,203351666,choice,choice4,0,0,1,25,4301,10517.6,262940,BC6.png,sand_t.png,SW7.png,SW9.png,SW4.png,SW6.png,SW3.png,SW5.png,388682
40920,19:50:58,9759,203351666,switch,choice4,0,0,1,25,4301,10517.6,262940,SW7.png,sand_t.png,SW7.png,SW9.png,SW4.png,SW6.png,SW3.png,SW5.png,389607
40920,19:50:58,9759,203351666,choice,choice2,0,0,1,26,2723,10217.84615,265664,SW7.png,cereal_t.png,BC11.png,BC3.png,BC2.png,BC9.png,BC8.png,BC1.png,392887
40920,19:50:58,9759,203351666,switch,choice2,0,0,1,26,2723,10217.84615,265664,BC11.png,cereal_t.png,BC11.png,BC3.png,BC2.png,BC9.png,BC8.png,BC1.png,393967
40920,19:50:58,9759,203351666,choice,choice1,1,0,0,27,9149,10178.2963,274814,BC11.png,soup_t.png,S9.png,S12.png,S5.png,S13.png,S3.png,S7.png,403668
40920,19:50:58,9759,203351666,choice,choice1,1,0,0,28,36681,11124.85714,311496,BC11.png,yog_t.png,Y8.png,Y12.png,Y2.png,Y11.png,Y10.png,Y3.png,440907
40920,19:50:58,9759,203351666,choice,choice1,1,0,0,29,5994,10947.96552,317491,BC11.png,soup_t.png,S9.png,S12.png,S5.png,S3.png,S6.png,S13.png,447468
40920,19:50:58,9759,203351666,choice,choice1,1,0,0,30,3370,10695.4,320862,BC11.png,crisps_t.png,C5.png,C10.png,C8.png,C9.png,C2.png,C6.png,451392
41320,17:11:22,8644,311850380,choice,choice4,0,0,1,1,8163,8164,8164,RM8.png,sand_t.png,SW7.png,SW9.png,SW4.png,SW6.png,SW8.png,SW11.png,61778
41320,17:11:22,8644,311850380,switch,choice4,0,0,1,1,8163,8164,8164,SW7.png,sand_t.png,SW7.png,SW9.png,SW4.png,SW6.png,SW8.png,SW11.png,68462
41320,17:11:22,8644,311850380,choice,choice1,1,0,0,2,9324,8744.5,17489,SW7.png,soup_t.png,S9.png,S12.png,S6.png,S1.png,S4.png,S3.png,78406
41320,17:11:22,8644,311850380,choice,choice3,0,0,1,3,11881,9790.333333,29371,SW7.png,crisps_t.png,C3.png,C7.png,C4.png,C12.png,C6.png,C9.png,90915
41320,17:11:22,8644,311850380,switch,choice3,0,0,1,3,11881,9790.333333,29371,C3.png,crisps_t.png,C3.png,C7.png,C4.png,C12.png,C6.png,C9.png,93224
41320,17:11:22,8644,311850380,choice,choice2,0,0,1,4,12956,10582,42328,C3.png,crisps_t.png,C3.png,C10.png,C4.png,C6.png,C2.png,C7.png,106811
41320,17:11:22,8644,311850380,switch,choice2,0,0,1,4,12956,10582,42328,C3.png,crisps_t.png,C3.png,C10.png,C4.png,C6.png,C2.png,C7.png,108636
41320,17:11:22,8644,311850380,choice,choice1,1,0,0,5,5424,9550.6,47753,C3.png,crisps_t.png,C5.png,C10.png,C8.png,C9.png,C2.png,C6.png,114677
41320,17:11:22,8644,311850380,choice,choice2,0,0,1,6,20629,11397.16667,68383,C3.png,soup_t.png,S9.png,S5.png,S6.png,S10.png,S13.png,S3.png,135932
41320,17:11:22,8644,311850380,switch,choice2,0,0,1,6,20629,11397.16667,68383,S9.png,soup_t.png,S9.png,S5.png,S6.png,S10.png,S13.png,S3.png,137697
41320,17:11:22,8644,311850380,choice,choice4,0,0,1,7,8903,11041,77287,S9.png,sand_t.png,SW7.png,SW9.png,SW4.png,SW6.png,SW3.png,SW5.png,147224
41320,17:11:22,8644,311850380,switch,choice4,0,0,1,7,8903,11041,77287,SW7.png,sand_t.png,SW7.png,SW9.png,SW4.png,SW6.png,SW3.png,SW5.png,148590
41320,17:11:22,8644,311850380,choice,choice3,0,0,1,8,12219,11188.375,89507,SW7.png,cereal_t.png,BC5.png,BC1.png,BC3.png,BC2.png,BC8.png,BC9.png,161440
41320,17:11:22,8644,311850380,switch,choice3,0,0,1,8,12219,11188.375,89507,BC5.png,cereal_t.png,BC5.png,BC1.png,BC3.png,BC2.png,BC8.png,BC9.png,163020
41320,17:11:22,8644,311850380,choice,choice3,0,0,1,9,10869,11153,100377,BC5.png,soup_t.png,S9.png,S12.png,S5.png,S3.png,S6.png,S13.png,174507
41320,17:11:22,8644,311850380,switch,choice3,0,0,1,9,10869,11153,100377,S9.png,soup_t.png,S9.png,S12.png,S5.png,S3.png,S6.png,S13.png,176066
41320,17:11:22,8644,311850380,choice,choice3,0,0,1,10,12828,11320.6,113206,S9.png,soup_t.png,S9.png,S12.png,S5.png,S13.png,S3.png,S7.png,189535
41320,17:11:22,8644,311850380,switch,choice3,0,0,1,10,12828,11320.6,113206,S9.png,soup_t.png,S9.png,S12.png,S5.png,S13.png,S3.png,S7.png,191316
41320,17:11:22,8644,311850380,choice,choice4,0,0,1,11,11340,11322.45455,124547,S9.png,sand_t.png,SW7.png,SW9.png,SW3.png,SW6.png,SW1.png,SW10.png,203300
41320,17:11:22,8644,311850380,switch,choice4,0,0,1,11,11340,11322.45455,124547,SW7.png,sand_t.png,SW7.png,SW9.png,SW3.png,SW6.png,SW1.png,SW10.png,205290
41320,17:11:22,8644,311850380,choice,choice3,0,0,1,12,13111,11471.58333,137659,SW7.png,soup_t.png,S9.png,S12.png,S13.png,S7.png,S3.png,S4.png,219021
41320,17:11:22,8644,311850380,switch,choice3,0,1,1,12,13111,11471.58333,137659,S9.png,soup_t.png,S9.png,S12.png,S13.png,S7.png,S3.png,S4.png,221882
41320,17:11:22,8644,311850380,choice,choice4,0,1,1,13,12055,11516.53846,149715,S9.png,sand_t.png,SW7.png,SW9.png,SW8.png,SW6.png,SW1.png,SW11.png,234573
41320,17:11:22,8644,311850380,switch,choice4,0,0,1,13,12055,11516.53846,149715,SW7.png,sand_t.png,SW7.png,SW9.png,SW8.png,SW6.png,SW1.png,SW11.png,236658
41320,17:11:22,8644,311850380,choice,choice2,0,0,1,14,16231,11853.35714,165947,SW7.png,yog_t.png,Y9.png,Y1.png,Y10.png,Y12.png,Y2.png,Y3.png,253525
41320,17:11:22,8644,311850380,switch,choice2,0,1,1,14,16231,11853.35714,165947,Y9.png,yog_t.png,Y9.png,Y1.png,Y10.png,Y12.png,Y2.png,Y3.png,254990
41320,17:11:22,8644,311850380,choice,choice4,0,1,1,15,10405,11756.86667,176353,Y9.png,sand_t.png,SW7.png,SW11.png,SW10.png,SW6.png,SW1.png,SW8.png,266021
41320,17:11:22,8644,311850380,switch,choice4,0,0,1,15,10405,11756.86667,176353,SW7.png,sand_t.png,SW7.png,SW11.png,SW10.png,SW6.png,SW1.png,SW8.png,267112
41320,17:11:22,8644,311850380,breaktime,choice4,0,0,1,15,10405,11756.86667,176353,SW7.png,sand_t.png,SW7.png,SW11.png,SW10.png,SW6.png,SW1.png,SW8.png,775528
41320,17:11:22,8644,311850380,choice,choice1,1,0,0,16,4154,11281.75,180508,SW7.png,ready_t.png,RM9.png,RM4.png,RM11.png,RM5.png,RM2.png,RM12.png,780302
41320,17:11:22,8644,311850380,choice,choice1,1,0,0,17,14586,11476.17647,195095,SW7.png,yog_t.png,Y8.png,Y12.png,Y2.png,Y11.png,Y10.png,Y3.png,795501
41320,17:11:22,8644,311850380,choice,choice1,1,0,0,18,6853,11219.38889,201949,SW7.png,yog_t.png,Y8.png,Y4.png,Y3.png,Y2.png,Y10.png,Y11.png,802969
41320,17:11:22,8644,311850380,choice,choice4,0,0,1,19,7316,11014,209266,SW7.png,cereal_t.png,BC6.png,BC9.png,BC12.png,BC2.png,BC5.png,BC8.png,810916
41320,17:11:22,8644,311850380,switch,choice4,0,0,1,19,7316,11014,209266,BC6.png,cereal_t.png,BC6.png,BC9.png,BC12.png,BC2.png,BC5.png,BC8.png,813383
41320,17:11:22,8644,311850380,choice,choice2,0,0,1,20,3777,10652.2,213044,BC6.png,cereal_t.png,BC11.png,BC3.png,BC2.png,BC9.png,BC8.png,BC1.png,817777
41320,17:11:22,8644,311850380,switch,choice2,0,0,1,20,3777,10652.2,213044,BC11.png,cereal_t.png,BC11.png,BC3.png,BC2.png,BC9.png,BC8.png,BC1.png,819332
41320,17:11:22,8644,311850380,choice,choice2,0,0,1,21,5041,10385.04762,218086,BC11.png,cereal_t.png,BC11.png,BC3.png,BC2.png,BC12.png,BC8.png,BC1.png,824993
41320,17:11:22,8644,311850380,switch,choice2,0,0,1,21,5041,10385.04762,218086,BC11.png,cereal_t.png,BC11.png,BC3.png,BC2.png,BC12.png,BC8.png,BC1.png,826243
41320,17:11:22,8644,311850380,choice,choice2,0,0,1,22,15431,10614.45455,233518,BC11.png,ready_t.png,RM3.png,RM11.png,RM1.png,RM5.png,RM13.png,RM2.png,842316
41320,17:11:22,8644,311850380,switch,choice2,0,0,1,22,15431,10614.45455,233518,RM3.png,ready_t.png,RM3.png,RM11.png,RM1.png,RM5.png,RM13.png,RM2.png,843880
41320,17:11:22,8644,311850380,choice,choice4,0,0,1,23,5907,10409.82609,239426,RM3.png,cereal_t.png,BC4.png,BC1.png,BC12.png,BC2.png,BC8.png,BC5.png,850428
41320,17:11:22,8644,311850380,switch,choice4,0,0,1,23,5907,10409.82609,239426,BC4.png,cereal_t.png,BC4.png,BC1.png,BC12.png,BC2.png,BC8.png,BC5.png,852464
41320,17:11:22,8644,311850380,choice,choice1,1,0,0,24,17030,10685.70833,256457,BC4.png,ready_t.png,RM7.png,RM11.png,RM1.png,RM5.png,RM13.png,RM2.png,870117
41320,17:11:22,8644,311850380,choice,choice1,1,0,0,25,14859,10852.68,271317,BC4.png,yog_t.png,Y8.png,Y1.png,Y3.png,Y12.png,Y10.png,Y2.png,885597
41320,17:11:22,8644,311850380,choice,choice2,0,0,1,26,6144,10671.61538,277462,BC4.png,crisps_t.png,C3.png,C10.png,C4.png,C2.png,C9.png,C6.png,892384
41320,17:11:22,8644,311850380,switch,choice2,0,0,1,26,6144,10671.61538,277462,C3.png,crisps_t.png,C3.png,C10.png,C4.png,C2.png,C9.png,C6.png,894235
41320,17:11:22,8644,311850380,choice,choice1,1,0,0,27,7787,10564.81481,285250,C3.png,ready_t.png,RM9.png,RM4.png,RM12.png,RM5.png,RM13.png,RM8.png,902659
41320,17:11:22,8644,311850380,choice,choice1,1,0,0,28,11841,10610.42857,297092,C3.png,yog_t.png,Y9.png,Y1.png,Y10.png,Y12.png,Y2.png,Y3.png,915116
41320,17:11:22,8644,311850380,choice,choice3,0,0,1,29,3052,10349.82759,300145,C3.png,cereal_t.png,BC11.png,BC3.png,BC2.png,BC9.png,BC8.png,BC1.png,918809
41320,17:11:22,8644,311850380,switch,choice3,0,0,1,29,3052,10349.82759,300145,BC11.png,cereal_t.png,BC11.png,BC3.png,BC2.png,BC9.png,BC8.png,BC1.png,920492
41320,17:11:22,8644,311850380,choice,choice2,0,0,1,30,10669,10360.5,310815,BC11.png,crisps_t.png,C3.png,C10.png,C4.png,C2.png,C9.png,C6.png,931794
41320,17:11:22,8644,311850380,switch,choice2,0,0,1,30,10669,10360.5,310815,C3.png,crisps_t.png,C3.png,C10.png,C4.png,C2.png,C9.png,C6.png,933803
41920,18:30:53,9948,668515267,choice,choice3,0,0,1,1,3297,3298,3298,RM8.png,ready_t.png,RM9.png,RM4.png,RM12.png,RM5.png,RM13.png,RM8.png,31006
41920,18:30:53,9948,668515267,switch,choice3,0,1,1,1,3297,3298,3298,RM9.png,ready_t.png,RM9.png,RM4.png,RM12.png,RM5.png,RM13.png,RM8.png,32767
41920,18:30:53,9948,668515267,choice,choice5,0,1,1,2,1486,2392.5,4785,RM9.png,yog_t.png,Y8.png,Y4.png,Y3.png,Y2.png,Y10.png,Y11.png,34845
41920,18:30:53,9948,668515267,switch,choice5,0,1,1,2,1486,2392.5,4785,Y8.png,yog_t.png,Y8.png,Y4.png,Y3.png,Y2.png,Y10.png,Y11.png,35762
41920,18:30:53,9948,668515267,choice,choice6,0,1,1,3,2051,2279,6837,Y8.png,crisps_t.png,C3.png,C5.png,C7.png,C2.png,C11.png,C12.png,38426
41920,18:30:53,9948,668515267,switch,choice6,0,0,1,3,2051,2279,6837,C3.png,crisps_t.png,C3.png,C5.png,C7.png,C2.png,C11.png,C12.png,40765
41920,18:30:53,9948,668515267,choice,choice2,0,0,1,4,2451,2322.25,9289,C3.png,ready_t.png,RM9.png,RM4.png,RM11.png,RM5.png,RM2.png,RM12.png,43811
41920,18:30:53,9948,668515267,switch,choice2,0,1,1,4,2451,2322.25,9289,RM9.png,ready_t.png,RM9.png,RM4.png,RM11.png,RM5.png,RM2.png,RM12.png,44942
41920,18:30:53,9948,668515267,choice,choice5,0,1,1,5,1902,2238.4,11192,RM9.png,sand_t.png,SW7.png,SW11.png,SW10.png,SW6.png,SW1.png,SW8.png,47459
41920,18:30:53,9948,668515267,switch,choice5,0,1,1,5,1902,2238.4,11192,SW7.png,sand_t.png,SW7.png,SW11.png,SW10.png,SW6.png,SW1.png,SW8.png,48515
41920,18:30:53,9948,668515267,choice,choice1,1,1,0,6,2146,2223.166667,13339,SW7.png,ready_t.png,RM3.png,RM11.png,RM1.png,RM5.png,RM13.png,RM2.png,51252
41920,18:30:53,9948,668515267,choice,choice5,0,1,1,7,2821,2308.714286,16161,SW7.png,cereal_t.png,BC4.png,BC1.png,BC12.png,BC2.png,BC8.png,BC5.png,54678
41920,18:30:53,9948,668515267,switch,choice5,0,1,1,7,2821,2308.714286,16161,BC4.png,cereal_t.png,BC4.png,BC1.png,BC12.png,BC2.png,BC8.png,BC5.png,57358
41920,18:30:53,9948,668515267,choice,choice6,0,1,1,8,1639,2225.125,17801,BC4.png,cereal_t.png,BC5.png,BC1.png,BC3.png,BC2.png,BC8.png,BC9.png,59595
41920,18:30:53,9948,668515267,switch,choice6,0,0,1,8,1639,2225.125,17801,BC5.png,cereal_t.png,BC5.png,BC1.png,BC3.png,BC2.png,BC8.png,BC9.png,61106
41920,18:30:53,9948,668515267,choice,choice3,0,0,1,9,1636,2159.777778,19438,BC5.png,crisps_t.png,C3.png,C10.png,C4.png,C6.png,C2.png,C7.png,63374
41920,18:30:53,9948,668515267,switch,choice3,0,1,1,9,1636,2159.777778,19438,C3.png,crisps_t.png,C3.png,C10.png,C4.png,C6.png,C2.png,C7.png,64255
41920,18:30:53,9948,668515267,choice,choice5,0,1,1,10,1726,2116.5,21165,C3.png,crisps_t.png,C3.png,C7.png,C4.png,C12.png,C6.png,C9.png,66580
41920,18:30:53,9948,668515267,switch,choice5,0,0,1,10,1726,2116.5,21165,C3.png,crisps_t.png,C3.png,C7.png,C4.png,C12.png,C6.png,C9.png,67475
41920,18:30:53,9948,668515267,choice,choice5,0,0,1,11,2228,2126.727273,23394,C3.png,crisps_t.png,C5.png,C10.png,C8.png,C9.png,C2.png,C6.png,70316
41920,18:30:53,9948,668515267,switch,choice5,0,0,1,11,2228,2126.727273,23394,C5.png,crisps_t.png,C5.png,C10.png,C8.png,C9.png,C2.png,C6.png,71299
41920,18:30:53,9948,668515267,choice,choice1,1,0,0,12,2428,2151.916667,25823,C5.png,ready_t.png,RM8.png,RM11.png,RM1.png,RM5.png,RM13.png,RM2.png,74316
41920,18:30:53,9948,668515267,choice,choice1,1,0,0,13,2016,2141.538462,27840,C5.png,soup_t.png,S9.png,S12.png,S13.png,S7.png,S3.png,S4.png,76936
41920,18:30:53,9948,668515267,choice,choice3,0,0,1,14,2592,2173.785714,30433,C5.png,yog_t.png,Y9.png,Y1.png,Y10.png,Y12.png,Y2.png,Y3.png,80127
41920,18:30:53,9948,668515267,switch,choice3,0,1,1,14,2592,2173.785714,30433,Y9.png,yog_t.png,Y9.png,Y1.png,Y10.png,Y12.png,Y2.png,Y3.png,81602
41920,18:30:53,9948,668515267,choice,choice1,1,1,0,15,1793,2148.466667,32227,Y9.png,cereal_t.png,BC6.png,BC9.png,BC12.png,BC2.png,BC5.png,BC8.png,83994
41920,18:30:53,9948,668515267,breaktime,choice1,1,1,0,15,1793,2148.466667,32227,Y9.png,cereal_t.png,BC6.png,BC9.png,BC12.png,BC2.png,BC5.png,BC8.png,86931
41920,18:30:53,9948,668515267,choice,choice4,0,1,1,16,1128,2084.75,33356,Y9.png,cereal_t.png,BC11.png,BC3.png,BC2.png,BC12.png,BC8.png,BC1.png,88646
41920,18:30:53,9948,668515267,switch,choice4,0,1,1,16,1128,2084.75,33356,BC11.png,cereal_t.png,BC11.png,BC3.png,BC2.png,BC12.png,BC8.png,BC1.png,89791
41920,18:30:53,9948,668515267,choice,choice4,0,1,1,17,1688,2061.470588,35045,BC11.png,sand_t.png,SW7.png,SW9.png,SW4.png,SW6.png,SW8.png,SW11.png,92073
41920,18:30:53,9948,668515267,switch,choice4,0,0,1,17,1688,2061.470588,35045,SW7.png,sand_t.png,SW7.png,SW9.png,SW4.png,SW6.png,SW8.png,SW11.png,93050
41920,18:30:53,9948,668515267,choice,choice2,0,0,1,18,805,1991.722222,35851,SW7.png,soup_t.png,S9.png,S12.png,S5.png,S13.png,S3.png,S7.png,94458
41920,18:30:53,9948,668515267,choice,choice5,0,0,1,19,4090,2102.210526,39942,SW7.png,soup_t.png,S9.png,S5.png,S6.png,S10.png,S13.png,S3.png,109222
41920,18:30:53,9948,668515267,switch,choice5,0,0,1,19,4090,2102.210526,39942,S9.png,soup_t.png,S9.png,S5.png,S6.png,S10.png,S13.png,S3.png,110829
41920,18:30:53,9948,668515267,choice,choice5,0,0,1,20,1139,2054.1,41082,S9.png,ready_t.png,RM7.png,RM11.png,RM1.png,RM5.png,RM13.png,RM2.png,112554
41920,18:30:53,9948,668515267,switch,choice5,0,1,1,20,1139,2054.1,41082,RM7.png,ready_t.png,RM7.png,RM11.png,RM1.png,RM5.png,RM13.png,RM2.png,114903
41920,18:30:53,9948,668515267,choice,choice4,0,1,1,21,2038,2053.380952,43121,RM7.png,soup_t.png,S9.png,S12.png,S5.png,S3.png,S6.png,S13.png,117536
41920,18:30:53,9948,668515267,switch,choice4,0,0,1,21,2038,2053.380952,43121,S9.png,soup_t.png,S9.png,S12.png,S5.png,S3.png,S6.png,S13.png,118732
41920,18:30:53,9948,668515267,choice,choice2,0,0,1,22,1823,2042.954545,44945,S9.png,sand_t.png,SW7.png,SW9.png,SW4.png,SW6.png,SW3.png,SW5.png,121153
41920,18:30:53,9948,668515267,switch,choice2,0,1,1,22,1823,2042.954545,44945,SW7.png,sand_t.png,SW7.png,SW9.png,SW4.png,SW6.png,SW3.png,SW5.png,122966
41920,18:30:53,9948,668515267,choice,choice4,0,1,1,23,1186,2005.73913,46132,SW7.png,sand_t.png,SW7.png,SW9.png,SW3.png,SW6.png,SW1.png,SW10.png,124749
41920,18:30:53,9948,668515267,switch,choice4,0,0,1,23,1186,2005.73913,46132,SW7.png,sand_t.png,SW7.png,SW9.png,SW3.png,SW6.png,SW1.png,SW10.png,125622
41920,18:30:53,9948,668515267,choice,choice6,0,0,1,24,2211,2014.333333,48344,SW7.png,sand_t.png,SW7.png,SW9.png,SW8.png,SW6.png,SW1.png,SW11.png,128440
41920,18:30:53,9948,668515267,switch,choice6,0,0,1,24,2211,2014.333333,48344,SW7.png,sand_t.png,SW7.png,SW9.png,SW8.png,SW6.png,SW1.png,SW11.png,129438
41920,18:30:53,9948,668515267,choice,choice1,1,0,0,25,2110,2018.2,50455,SW7.png,yog_t.png,Y8.png,Y12.png,Y2.png,Y11.png,Y10.png,Y3.png,132138
41920,18:30:53,9948,668515267,choice,choice4,0,0,1,26,1941,2015.269231,52397,SW7.png,crisps_t.png,C3.png,C10.png,C4.png,C2.png,C9.png,C6.png,134669
41920,18:30:53,9948,668515267,switch,choice4,0,0,1,26,1941,2015.269231,52397,C3.png,crisps_t.png,C3.png,C10.png,C4.png,C2.png,C9.png,C6.png,136196
41920,18:30:53,9948,668515267,choice,choice1,1,0,0,27,2043,2016.333333,54441,C3.png,yog_t.png,Y6.png,Y13.png,Y12.png,Y10.png,Y2.png,Y3.png,138837
41920,18:30:53,9948,668515267,choice,choice5,0,0,1,28,2653,2039.107143,57095,C3.png,sand_t.png,SW7.png,SW9.png,SW4.png,SW6.png,SW8.png,SW11.png,142080
41920,18:30:53,9948,668515267,switch,choice5,0,0,1,28,2653,2039.107143,57095,SW7.png,sand_t.png,SW7.png,SW9.png,SW4.png,SW6.png,SW8.png,SW11.png,144303
41920,18:30:53,9948,668515267,choice,choice3,0,0,1,29,2123,2042.034483,59219,SW7.png,yog_t.png,Y9.png,Y1.png,Y10.png,Y12.png,Y2.png,Y3.png,147018
41920,18:30:53,9948,668515267,switch,choice3,0,1,1,29,2123,2042.034483,59219,Y9.png,yog_t.png,Y9.png,Y1.png,Y10.png,Y12.png,Y2.png,Y3.png,148287
41920,18:30:53,9948,668515267,choice,choice6,0,1,1,30,1209,2014.3,60429,Y9.png,soup_t.png,S9.png,S12.png,S5.png,S3.png,S6.png,S13.png,150085
41920,18:30:53,9948,668515267,switch,choice6,0,1,1,30,1209,2014.3,60429,S9.png,soup_t.png,S9.png,S12.png,S5.png,S3.png,S6.png,S13.png,151142