date,time,subject,group,trialcode,trial.choice.response,trial.choice.correct,values.switch,values.subopt,values.trial_num,trial.choice.latency,expressions.mean_rt,values.rt,picture.switch.currentitem,picture.foodtype.currentitem,picture.choice1.currentitem,picture.choice2.currentitem,picture.choice3.currentitem,picture.choice4.currentitem,picture.choice5.currentitem,picture.choice6.currentitem,script.elapsedtime
21020,16:08:37,8866,299294910,choice,choice1,1,0,0,1,5024,5025,5025,RM11.png,cereal_t.png,BC2.png,BC9.png,BC12.png,BC6.png,BC5.png,BC8.png,99804
21020,16:08:37,8866,299294910,choice,choice2,0,0,1,2,8206,6616,13232,RM11.png,crisps_t.png,C10.png,C4.png,C3.png,C2.png,C9.png,C6.png,108698
21020,16:08:37,8866,299294910,switch,choice2,0,1,1,2,8206,6616,13232,C10.png,crisps_t.png,C10.png,C4.png,C3.png,C2.png,C9.png,C6.png,115651
21020,16:08:37,8866,299294910,choice,choice3,0,1,1,3,5253,6162,18486,C10.png,crisps_t.png,C4.png,C7.png,C3.png,C12.png,C6.png,C9.png,121497
21020,16:08:37,8866,299294910,switch,choice3,0,1,1,3,5253,6162,18486,C4.png,crisps_t.png,C4.png,C7.png,C3.png,C12.png,C6.png,C9.png,123476
21020,16:08:37,8866,299294910,choice,choice3,0,1,1,4,2545,5258,21032,C4.png,crisps_t.png,C10.png,C4.png,C3.png,C6.png,C2.png,C7.png,126599
21020,16:08:37,8866,299294910,switch,choice3,0,1,1,4,2545,5258,21032,C10.png,crisps_t.png,C10.png,C4.png,C3.png,C6.png,C2.png,C7.png,128039
21020,16:08:37,8866,299294910,choice,choice1,1,1,0,5,1474,4501.4,22507,C10.png,crisps_t.png,C5.png,C7.png,C3.png,C2.png,C11.png,C12.png,130108
21020,16:08:37,8866,299294910,choice,choice3,0,1,1,6,14755,6210.5,37263,C10.png,soup_t.png,S5.png,S12.png,S9.png,S13.png,S3.png,S7.png,145454
21020,16:08:37,8866,299294910,switch,choice3,0,1,1,6,14755,6210.5,37263,S5.png,soup_t.png,S5.png,S12.png,S9.png,S13.png,S3.png,S7.png,146986
21020,16:08:37,8866,299294910,choice,choice4,0,1,1,7,3541,5829.285714,40805,S5.png,ready_t.png,RM11.png,RM1.png,RM5.png,RM3.png,RM13.png,RM2.png,151125
21020,16:08:37,8866,299294910,switch,choice4,0,1,1,7,3541,5829.285714,40805,RM11.png,ready_t.png,RM11.png,RM1.png,RM5.png,RM3.png,RM13.png,RM2.png,152525
21020,16:08:37,8866,299294910,choice,choice2,0,1,1,8,1310,5264.5,42116,RM11.png,soup_t.png,S9.png,S12.png,S6.png,S1.png,S4.png,S3.png,154423
21020,16:08:37,8866,299294910,switch,choice2,0,1,1,8,1310,5264.5,42116,S9.png,soup_t.png,S9.png,S12.png,S6.png,S1.png,S4.png,S3.png,156065
21020,16:08:37,8866,299294910,choice,choice6,0,1,1,9,5865,5331.333333,47982,S9.png,sand_t.png,SW6.png,SW9.png,SW8.png,SW7.png,SW1.png,SW11.png,162523
21020,16:08:37,8866,299294910,switch,choice6,0,0,1,9,5865,5331.333333,47982,SW6.png,sand_t.png,SW6.png,SW9.png,SW8.png,SW7.png,SW1.png,SW11.png,164788
21020,16:08:37,8866,299294910,choice,choice1,1,0,0,10,5259,5324.2,53242,SW6.png,yog_t.png,Y4.png,Y8.png,Y3.png,Y2.png,Y10.png,Y11.png,170644
21020,16:08:37,8866,299294910,choice,choice2,0,0,1,11,3282,5138.636364,56525,SW6.png,sand_t.png,SW6.png,SW11.png,SW10.png,SW7.png,SW1.png,SW8.png,174511
21020,16:08:37,8866,299294910,switch,choice2,0,1,1,11,3282,5138.636364,56525,SW6.png,sand_t.png,SW6.png,SW11.png,SW10.png,SW7.png,SW1.png,SW8.png,176095
21020,16:08:37,8866,299294910,choice,choice1,1,1,0,12,8970,5458,65496,SW6.png,sand_t.png,SW4.png,SW9.png,SW6.png,SW7.png,SW8.png,SW11.png,185645
21020,16:08:37,8866,299294910,choice,choice1,1,1,0,13,2780,5252.076923,68277,SW6.png,ready_t.png,RM9.png,RM4.png,RM12.png,RM5.png,RM13.png,RM8.png,189013
21020,16:08:37,8866,299294910,choice,choice1,1,1,0,14,8471,5482.071429,76749,SW6.png,cereal_t.png,BC3.png,BC11.png,BC2.png,BC9.png,BC8.png,BC1.png,198068
21020,16:08:37,8866,299294910,choice,choice2,0,1,1,15,3270,5334.666667,80020,SW6.png,yog_t.png,Y1.png,Y8.png,Y3.png,Y12.png,Y10.png,Y2.png,201926
21020,16:08:37,8866,299294910,switch,choice2,0,0,1,15,3270,5334.666667,80020,Y1.png,yog_t.png,Y1.png,Y8.png,Y3.png,Y12.png,Y10.png,Y2.png,207857
21020,16:08:37,8866,299294910,breaktime,choice2,0,0,1,15,3270,5334.666667,80020,Y1.png,yog_t.png,Y1.png,Y8.png,Y3.png,Y12.png,Y10.png,Y2.png,211220
21020,16:08:37,8866,299294910,choice,choice6,0,0,1,16,2665,5167.875,82686,Y1.png,soup_t.png,S5.png,S12.png,S9.png,S3.png,S6.png,S13.png,214476
21020,16:08:37,8866,299294910,switch,choice6,0,0,1,16,2665,5167.875,82686,S5.png,soup_t.png,S5.png,S12.png,S9.png,S3.png,S6.png,S13.png,215754
21020,16:08:37,8866,299294910,choice,choice1,1,0,0,17,3197,5052,85884,S5.png,soup_t.png,S9.png,S12.png,S13.png,S7.png,S3.png,S4.png,219538
21020,16:08:37,8866,299294910,choice,choice4,0,0,1,18,3627,4972.888889,89512,S5.png,ready_t.png,RM11.png,RM1.png,RM5.png,RM8.png,RM13.png,RM2.png,223748
21020,16:08:37,8866,299294910,switch,choice4,0,0,1,18,3627,4972.888889,89512,RM11.png,ready_t.png,RM11.png,RM1.png,RM5.png,RM8.png,RM13.png,RM2.png,225149
21020,16:08:37,8866,299294910,choice,choice1,1,0,0,19,2288,4831.631579,91801,RM11.png,ready_t.png,RM9.png,RM4.png,RM11.png,RM5.png,RM2.png,RM12.png,228020
21020,16:08:37,8866,299294910,choice,choice2,0,0,1,20,5403,4860.25,97205,RM11.png,soup_t.png,S5.png,S9.png,S6.png,S10.png,S13.png,S3.png,234017
21020,16:08:37,8866,299294910,switch,choice2,0,0,1,20,5403,4860.25,97205,S5.png,soup_t.png,S5.png,S9.png,S6.png,S10.png,S13.png,S3.png,235487
21020,16:08:37,8866,299294910,choice,choice1,1,0,0,21,2936,4768.666667,100142,S5.png,crisps_t.png,C5.png,C10.png,C8.png,C9.png,C2.png,C6.png,239009
21020,16:08:37,8866,299294910,choice,choice3,0,0,1,22,1648,4626.863636,101791,S5.png,sand_t.png,SW4.png,SW9.png,SW6.png,SW7.png,SW3.png,SW5.png,241252
21020,16:08:37,8866,299294910,switch,choice3,0,0,1,22,1648,4626.863636,101791,SW4.png,sand_t.png,SW4.png,SW9.png,SW6.png,SW7.png,SW3.png,SW5.png,244347
21020,16:08:37,8866,299294910,choice,choice1,1,0,0,23,5343,4658.043478,107135,SW4.png,cereal_t.png,BC3.png,BC11.png,BC2.png,BC12.png,BC8.png,BC1.png,250275
21020,16:08:37,8866,299294910,choice,choice2,0,0,1,24,3495,4609.625,110631,SW4.png,yog_t.png,Y8.png,Y12.png,Y2.png,Y11.png,Y10.png,Y3.png,254356
21020,16:08:37,8866,299294910,switch,choice2,0,1,1,24,3495,4609.625,110631,Y8.png,yog_t.png,Y8.png,Y12.png,Y2.png,Y11.png,Y10.png,Y3.png,256081
21020,16:08:37,8866,299294910,choice,choice2,0,1,1,25,478,4444.4,111110,Y8.png,cereal_t.png,BC2.png,BC1.png,BC12.png,BC4.png,BC8.png,BC5.png,257167
21020,16:08:37,8866,299294910,choice,choice3,0,1,1,26,3997,4427.230769,115108,Y8.png,cereal_t.png,BC3.png,BC1.png,BC2.png,BC5.png,BC8.png,BC9.png,271826
21020,16:08:37,8866,299294910,switch,choice3,0,0,1,26,3997,4427.230769,115108,BC3.png,cereal_t.png,BC3.png,BC1.png,BC2.png,BC5.png,BC8.png,BC9.png,275998
21020,16:08:37,8866,299294910,choice,choice4,0,0,1,27,6572,4506.703704,121681,BC3.png,ready_t.png,RM11.png,RM1.png,RM5.png,RM7.png,RM13.png,RM2.png,283176
21020,16:08:37,8866,299294910,switch,choice4,0,1,1,27,6572,4506.703704,121681,RM11.png,ready_t.png,RM11.png,RM1.png,RM5.png,RM7.png,RM13.png,RM2.png,287977
21020,16:08:37,8866,299294910,choice,choice3,0,1,1,28,8106,4635.285714,129788,RM11.png,crisps_t.png,C4.png,C7.png,C3.png,C12.png,C6.png,C9.png,296666
21020,16:08:37,8866,299294910,switch,choice3,0,1,1,28,8106,4635.285714,129788,C4.png,crisps_t.png,C4.png,C7.png,C3.png,C12.png,C6.png,C9.png,299518
21020,16:08:37,8866,299294910,choice,choice2,0,1,1,29,4162,4619,133951,C4.png,yog_t.png,Y1.png,Y9.png,Y10.png,Y12.png,Y2.png,Y3.png,304263
21020,16:08:37,8866,299294910,switch,choice2,0,0,1,29,4162,4619,133951,Y1.png,yog_t.png,Y1.png,Y9.png,Y10.png,Y12.png,Y2.png,Y3.png,306444
21020,16:08:37,8866,299294910,choice,choice4,0,0,1,30,5170,4637.4,139122,Y1.png,sand_t.png,SW6.png,SW9.png,SW8.png,SW7.png,SW1.png,SW11.png,312198
21020,16:08:37,8866,299294910,switch,choice4,0,1,1,30,5170,4637.4,139122,SW6.png,sand_t.png,SW6.png,SW9.png,SW8.png,SW7.png,SW1.png,SW11.png,314471
21020,16:29:19,9867,330540190,choice,choice2,0,0,1,1,58061,58062,58062,RM11.png,soup_t.png,S5.png,S12.png,S9.png,S3.png,S6.png,S13.png,122142
21020,16:29:19,9867,330540190,switch,choice2,0,1,1,1,58061,58062,58062,S5.png,soup_t.png,S5.png,S12.png,S9.png,S3.png,S6.png,S13.png,126899
21020,16:29:19,9867,330540190,choice,choice1,1,1,0,2,25079,41571,83142,S5.png,cereal_t.png,BC2.png,BC1.png,BC12.png,BC4.png,BC8.png,BC5.png,152582
21020,16:29:19,9867,330540190,choice,choice1,1,1,0,3,38433,40525.33333,121576,S5.png,soup_t.png,S9.png,S12.png,S13.png,S7.png,S3.png,S4.png,191616
21020,16:29:19,9867,330540190,choice,choice1,1,1,0,4,12462,33509.75,134039,S5.png,sand_t.png,SW6.png,SW9.png,SW3.png,SW7.png,SW1.png,SW10.png,204688
21020,16:29:19,9867,330540190,choice,choice2,0,1,1,5,12550,29318,146590,S5.png,yog_t.png,Y1.png,Y9.png,Y10.png,Y12.png,Y2.png,Y3.png,217841
21020,16:29:19,9867,330540190,switch,choice2,0,0,1,5,12550,29318,146590,Y1.png,yog_t.png,Y1.png,Y9.png,Y10.png,Y12.png,Y2.png,Y3.png,221262
21020,16:29:19,9867,330540190,choice,choice1,1,0,0,6,19584,27695.83333,166175,Y1.png,ready_t.png,RM11.png,RM1.png,RM5.png,RM3.png,RM13.png,RM2.png,241439
21020,16:29:19,9867,330540190,choice,choice1,1,0,0,7,16834,26144.28571,183010,Y1.png,crisps_t.png,C5.png,C10.png,C8.png,C9.png,C2.png,C6.png,258869
21020,16:29:19,9867,330540190,choice,choice1,1,0,0,8,47401,28801.5,230412,Y1.png,crisps_t.png,C4.png,C7.png,C3.png,C12.png,C6.png,C9.png,306866
21020,16:29:19,9867,330540190,choice,choice1,1,0,0,9,23574,28220.77778,253987,Y1.png,cereal_t.png,BC2.png,BC9.png,BC12.png,BC6.png,BC5.png,BC8.png,331033
21020,16:29:19,9867,330540190,choice,choice2,0,0,1,10,58305,31229.3,312293,Y1.png,crisps_t.png,C10.png,C4.png,C3.png,C6.png,C2.png,C7.png,389927
21020,16:29:19,9867,330540190,switch,choice2,0,0,1,10,58305,31229.3,312293,C10.png,crisps_t.png,C10.png,C4.png,C3.png,C6.png,C2.png,C7.png,393582
21020,16:29:19,9867,330540190,choice,choice2,0,0,1,11,35590,31625.81818,347884,C10.png,yog_t.png,Y4.png,Y8.png,Y3.png,Y2.png,Y10.png,Y11.png,429768
21020,16:29:19,9867,330540190,switch,choice2,0,1,1,11,35590,31625.81818,347884,Y4.png,yog_t.png,Y4.png,Y8.png,Y3.png,Y2.png,Y10.png,Y11.png,431727
21020,16:29:19,9867,330540190,choice,choice3,0,1,1,12,41237,32426.83333,389122,Y4.png,sand_t.png,SW4.png,SW9.png,SW6.png,SW7.png,SW8.png,SW11.png,473559
21020,16:29:19,9867,330540190,switch,choice3,0,1,1,12,41237,32426.83333,389122,SW4.png,sand_t.png,SW4.png,SW9.png,SW6.png,SW7.png,SW8.png,SW11.png,475520
21020,16:29:19,9867,330540190,choice,choice1,1,1,0,13,17973,31315.07692,407096,SW4.png,yog_t.png,Y8.png,Y12.png,Y2.png,Y11.png,Y10.png,Y3.png,494071
21020,16:29:19,9867,330540190,choice,choice3,0,1,1,14,21836,30638.07143,428933,SW4.png,cereal_t.png,BC3.png,BC1.png,BC2.png,BC5.png,BC8.png,BC9.png,516498
21020,16:29:19,9867,330540190,switch,choice3,0,1,1,14,21836,30638.07143,428933,BC3.png,cereal_t.png,BC3.png,BC1.png,BC2.png,BC5.png,BC8.png,BC9.png,520008
21020,16:29:19,9867,330540190,choice,choice1,1,1,0,15,22298,30082.13333,451232,BC3.png,soup_t.png,S9.png,S12.png,S6.png,S1.png,S4.png,S3.png,542906
21020,16:29:19,9867,330540190,breaktime,choice1,1,1,0,15,22298,30082.13333,451232,BC3.png,soup_t.png,S9.png,S12.png,S6.png,S1.png,S4.png,S3.png,544820
21020,16:29:19,9867,330540190,choice,choice1,1,1,0,16,18885,29382.375,470118,BC3.png,soup_t.png,S5.png,S9.png,S6.png,S10.png,S13.png,S3.png,564289
21020,16:29:19,9867,330540190,choice,choice1,1,1,0,17,16324,28614.29412,486443,BC3.png,soup_t.png,S5.png,S12.png,S9.png,S13.png,S3.png,S7.png,581192
21020,16:29:19,9867,330540190,choice,choice1,1,1,0,18,22996,28302.22222,509440,BC3.png,sand_t.png,SW6.png,SW11.png,SW10.png,SW7.png,SW1.png,SW8.png,604777
21020,16:29:19,9867,330540190,choice,choice1,1,1,0,19,13221,27508.52632,522662,BC3.png,crisps_t.png,C5.png,C7.png,C3.png,C2.png,C11.png,C12.png,618582
21020,16:29:19,9867,330540190,choice,choice1,1,1,0,20,10830,26674.65,533493,BC3.png,ready_t.png,RM9.png,RM4.png,RM12.png,RM5.png,RM13.png,RM8.png,630006
21020,16:29:19,9867,330540190,choice,choice1,1,1,0,21,21386,26422.85714,554880,BC3.png,crisps_t.png,C10.png,C4.png,C3.png,C2.png,C9.png,C6.png,651993
21020,16:29:19,9867,330540190,choice,choice1,1,1,0,22,19471,26106.90909,574352,BC3.png,cereal_t.png,BC3.png,BC11.png,BC2.png,BC9.png,BC8.png,BC1.png,672058
21020,16:29:19,9867,330540190,choice,choice1,1,1,0,23,61536,27647.34783,635889,BC3.png,ready_t.png,RM11.png,RM1.png,RM5.png,RM8.png,RM13.png,RM2.png,734204
21020,16:29:19,9867,330540190,choice,choice2,0,1,1,24,27745,27651.45833,663635,BC3.png,yog_t.png,Y1.png,Y8.png,Y3.png,Y12.png,Y10.png,Y2.png,762537
21020,16:29:19,9867,330540190,switch,choice2,0,0,1,24,27745,27651.45833,663635,Y1.png,yog_t.png,Y1.png,Y8.png,Y3.png,Y12.png,Y10.png,Y2.png,765791
21020,16:29:19,9867,330540190,choice,choice1,1,0,0,25,109692,30933.12,773328,Y1.png,sand_t.png,SW6.png,SW9.png,SW8.png,SW7.png,SW1.png,SW11.png,876079
21020,16:29:19,9867,330540190,choice,choice2,0,0,1,26,30315,30909.38462,803644,Y1.png,yog_t.png,Y6.png,Y13.png,Y12.png,Y10.png,Y2.png,Y3.png,906984
21020,16:29:19,9867,330540190,switch,choice2,0,1,1,26,30315,30909.38462,803644,Y6.png,yog_t.png,Y6.png,Y13.png,Y12.png,Y10.png,Y2.png,Y3.png,911680
21020,16:29:19,9867,330540190,choice,choice3,0,1,1,27,36055,31100,839700,Y6.png,sand_t.png,SW4.png,SW9.png,SW6.png,SW7.png,SW3.png,SW5.png,948317
21020,16:29:19,9867,330540190,switch,choice3,0,0,1,27,36055,31100,839700,SW4.png,sand_t.png,SW4.png,SW9.png,SW6.png,SW7.png,SW3.png,SW5.png,951029
21020,16:29:19,9867,330540190,choice,choice1,1,0,0,28,25324,30893.75,865025,SW4.png,sand_t.png,SW6.png,SW11.png,SW10.png,SW7.png,SW1.png,SW8.png,976947
21020,16:29:19,9867,330540190,choice,choice1,1,0,0,29,15281,30355.41379,880307,SW4.png,soup_t.png,S5.png,S9.png,S6.png,S10.png,S13.png,S3.png,992816
21020,16:29:19,9867,330540190,choice,choice1,1,0,0,30,25538,30194.86667,905846,SW4.png,ready_t.png,RM11.png,RM1.png,RM5.png,RM7.png,RM13.png,RM2.png,1018954
21120,18:30:27,8673,871945060,choice,choice1,1,0,0,1,14265,14266,14266,RM11.png,cereal_t.png,BC2.png,BC1.png,BC12.png,BC4.png,BC8.png,BC5.png,420892
21120,18:30:27,8673,871945060,choice,choice1,1,0,0,2,62957,38612,77224,RM11.png,crisps_t.png,C5.png,C10.png,C8.png,C9.png,C2.png,C6.png,484468
21120,18:30:27,8673,871945060,choice,choice3,0,0,1,3,11136,29453.66667,88361,RM11.png,sand_t.png,SW4.png,SW9.png,SW6.png,SW7.png,SW3.png,SW5.png,496231
21120,18:30:27,8673,871945060,switch,choice3,0,1,1,3,11136,29453.66667,88361,SW4.png,sand_t.png,SW4.png,SW9.png,SW6.png,SW7.png,SW3.png,SW5.png,505727
21120,18:30:27,8673,871945060,choice,choice1,1,1,0,4,8947,24327.25,97309,SW4.png,crisps_t.png,C5.png,C7.png,C3.png,C2.png,C11.png,C12.png,515301
21120,18:30:27,8673,871945060,choice,choice1,1,1,0,5,62211,31904.2,159521,SW4.png,cereal_t.png,BC3.png,BC11.png,BC2.png,BC12.png,BC8.png,BC1.png,578137
21120,18:30:27,8673,871945060,choice,choice1,1,1,0,6,9827,28224.83333,169349,SW4.png,cereal_t.png,BC3.png,BC11.png,BC2.png,BC9.png,BC8.png,BC1.png,588585
21120,18:30:27,8673,871945060,choice,choice1,1,1,0,7,5356,24958,174706,SW4.png,cereal_t.png,BC3.png,BC1.png,BC2.png,BC5.png,BC8.png,BC9.png,594571
21120,18:30:27,8673,871945060,choice,choice1,1,1,0,8,10994,23212.625,185701,SW4.png,sand_t.png,SW6.png,SW11.png,SW10.png,SW7.png,SW1.png,SW8.png,606185
21120,18:30:27,8673,871945060,choice,choice3,0,1,1,9,11221,21880.33333,196923,SW4.png,sand_t.png,SW4.png,SW9.png,SW6.png,SW7.png,SW8.png,SW11.png,618031
21120,18:30:27,8673,871945060,switch,choice3,0,1,1,9,11221,21880.33333,196923,SW4.png,sand_t.png,SW4.png,SW9.png,SW6.png,SW7.png,SW8.png,SW11.png,621060
21120,18:30:27,8673,871945060,choice,choice1,1,1,0,10,7888,20481.2,204812,SW4.png,soup_t.png,S9.png,S12.png,S6.png,S1.png,S4.png,S3.png,629570
21120,18:30:27,8673,871945060,choice,choice1,1,1,0,11,19024,20348.81818,223837,SW4.png,crisps_t.png,C4.png,C7.png,C3.png,C12.png,C6.png,C9.png,649211
21120,18:30:27,8673,871945060,choice,choice2,0,1,1,12,13708,19795.5,237546,SW4.png,yog_t.png,Y1.png,Y9.png,Y10.png,Y12.png,Y2.png,Y3.png,663538
21120,18:30:27,8673,871945060,switch,choice2,0,0,1,12,13708,19795.5,237546,Y1.png,yog_t.png,Y1.png,Y9.png,Y10.png,Y12.png,Y2.png,Y3.png,667342
21120,18:30:27,8673,871945060,choice,choice1,1,0,0,13,17637,19629.53846,255184,Y1.png,soup_t.png,S5.png,S12.png,S9.png,S3.png,S6.png,S13.png,685607
21120,18:30:27,8673,871945060,choice,choice2,0,0,1,14,26243,20102,281428,Y1.png,yog_t.png,Y1.png,Y8.png,Y3.png,Y12.png,Y10.png,Y2.png,712467
21120,18:30:27,8673,871945060,switch,choice2,0,1,1,14,26243,20102,281428,Y1.png,yog_t.png,Y1.png,Y8.png,Y3.png,Y12.png,Y10.png,Y2.png,721765
21120,18:30:27,8673,871945060,choice,choice2,0,1,1,15,11519,19529.86667,292948,Y1.png,crisps_t.png,C10.png,C4.png,C3.png,C2.png,C9.png,C6.png,733913
21120,18:30:27,8673,871945060,switch,choice2,0,1,1,15,11519,19529.86667,292948,C10.png,crisps_t.png,C10.png,C4.png,C3.png,C2.png,C9.png,C6.png,738765
21120,18:30:27,8673,871945060,breaktime,choice2,0,1,1,15,11519,19529.86667,292948,C10.png,crisps_t.png,C10.png,C4.png,C3.png,C2.png,C9.png,C6.png,740392
21120,18:30:27,8673,871945060,choice,choice1,1,1,0,16,10332,18955.0625,303281,C10.png,yog_t.png,Y8.png,Y12.png,Y2.png,Y11.png,Y10.png,Y3.png,751349
21120,18:30:27,8673,871945060,choice,choice1,1,1,0,17,16731,18824.29412,320013,C10.png,cereal_t.png,BC2.png,BC9.png,BC12.png,BC6.png,BC5.png,BC8.png,768704
21120,18:30:27,8673,871945060,choice,choice4,0,1,1,18,6851,18159.16667,326865,C10.png,ready_t.png,RM11.png,RM1.png,RM5.png,RM8.png,RM13.png,RM2.png,776182
21120,18:30:27,8673,871945060,switch,choice4,0,0,1,18,6851,18159.16667,326865,RM11.png,ready_t.png,RM11.png,RM1.png,RM5.png,RM8.png,RM13.png,RM2.png,778265
21120,18:30:27,8673,871945060,choice,choice1,1,0,0,19,5385,17486.89474,332251,RM11.png,ready_t.png,RM9.png,RM4.png,RM11.png,RM5.png,RM2.png,RM12.png,784269
21120,18:30:27,8673,871945060,choice,choice4,0,0,1,20,7467,16985.95,339719,RM11.png,ready_t.png,RM11.png,RM1.png,RM5.png,RM7.png,RM13.png,RM2.png,792354
21120,18:30:27,8673,871945060,switch,choice4,0,0,1,20,7467,16985.95,339719,RM11.png,ready_t.png,RM11.png,RM1.png,RM5.png,RM7.png,RM13.png,RM2.png,794397
21120,18:30:27,8673,871945060,choice,choice1,1,0,0,21,8924,16602.09524,348644,RM11.png,soup_t.png,S5.png,S9.png,S6.png,S10.png,S13.png,S3.png,803947
21120,18:30:27,8673,871945060,choice,choice1,1,0,0,22,3210,15993.40909,351855,RM11.png,ready_t.png,RM9.png,RM4.png,RM12.png,RM5.png,RM13.png,RM8.png,807784
21120,18:30:27,8673,871945060,choice,choice2,0,0,1,23,6274,15570.86957,358130,RM11.png,yog_t.png,Y4.png,Y8.png,Y3.png,Y2.png,Y10.png,Y11.png,814676
21120,18:30:27,8673,871945060,switch,choice2,0,1,1,23,6274,15570.86957,358130,Y4.png,yog_t.png,Y4.png,Y8.png,Y3.png,Y2.png,Y10.png,Y11.png,817640
21120,18:30:27,8673,871945060,choice,choice1,1,1,0,24,12036,15423.625,370167,Y4.png,sand_t.png,SW6.png,SW9.png,SW3.png,SW7.png,SW1.png,SW10.png,830292
21120,18:30:27,8673,871945060,choice,choice3,0,1,1,25,2602,14910.8,372770,Y4.png,crisps_t.png,C10.png,C4.png,C3.png,C6.png,C2.png,C7.png,833515
21120,18:30:27,8673,871945060,switch,choice3,0,1,1,25,2602,14910.8,372770,C10.png,crisps_t.png,C10.png,C4.png,C3.png,C6.png,C2.png,C7.png,834863
21120,18:30:27,8673,871945060,choice,choice2,0,1,1,26,4595,14514.07692,377366,C10.png,soup_t.png,S9.png,S12.png,S13.png,S7.png,S3.png,S4.png,840074
21120,18:30:27,8673,871945060,switch,choice2,0,1,1,26,4595,14514.07692,377366,S9.png,soup_t.png,S9.png,S12.png,S13.png,S7.png,S3.png,S4.png,842466
21120,18:30:27,8673,871945060,choice,choice1,1,1,0,27,5868,14193.88889,383235,S9.png,ready_t.png,RM11.png,RM1.png,RM5.png,RM3.png,RM13.png,RM2.png,848961
21120,18:30:27,8673,871945060,choice,choice1,1,1,0,28,5625,13887.89286,388861,S9.png,cereal_t.png,BC2.png,BC1.png,BC12.png,BC4.png,BC8.png,BC5.png,855207
21120,18:30:27,8673,871945060,choice,choice1,1,1,0,29,6790,13643.17241,395652,S9.png,soup_t.png,S5.png,S12.png,S9.png,S13.png,S3.png,S7.png,862606
21120,18:30:27,8673,871945060,choice,choice1,1,1,0,30,3909,13318.73333,399562,S9.png,soup_t.png,S5.png,S9.png,S6.png,S10.png,S13.png,S3.png,867130
21220,12:21:35,8704,710989801,choice,choice1,1,0,0,1,19352,19353,19353,RM11.png,yog_t.png,Y8.png,Y12.png,Y2.png,Y11.png,Y10.png,Y3.png,121135
21220,12:21:35,8704,710989801,choice,choice1,1,0,0,2,12653,16003.5,32007,RM11.png,sand_t.png,SW6.png,SW11.png,SW10.png,SW7.png,SW1.png,SW8.png,134359
21220,12:21:35,8704,710989801,choice,choice1,1,0,0,3,16262,16090,48270,RM11.png,cereal_t.png,BC3.png,BC11.png,BC2.png,BC12.png,BC8.png,BC1.png,151195
21220,12:21:35,8704,710989801,choice,choice1,1,0,0,4,10309,14645,58580,RM11.png,cereal_t.png,BC3.png,BC1.png,BC2.png,BC5.png,BC8.png,BC9.png,162083
21220,12:21:35,8704,710989801,choice,choice1,1,0,0,5,14384,14593,72965,RM11.png,sand_t.png,SW6.png,SW9.png,SW8.png,SW7.png,SW1.png,SW11.png,177035
21220,12:21:35,8704,710989801,choice,choice1,1,0,0,6,11607,14095.5,84573,RM11.png,crisps_t.png,C5.png,C10.png,C8.png,C9.png,C2.png,C6.png,189218
21220,12:21:35,8704,710989801,choice,choice1,1,0,0,7,18685,14751.28571,103259,RM11.png,soup_t.png,S5.png,S12.png,S9.png,S3.png,S6.png,S13.png,208472
21220,12:21:35,8704,710989801,choice,choice4,0,0,1,8,11891,14393.875,115151,RM11.png,ready_t.png,RM11.png,RM1.png,RM5.png,RM8.png,RM13.png,RM2.png,220935
21220,12:21:35,8704,710989801,switch,choice4,0,1,1,8,11891,14393.875,115151,RM11.png,ready_t.png,RM11.png,RM1.png,RM5.png,RM8.png,RM13.png,RM2.png,228691
21220,12:21:35,8704,710989801,choice,choice1,1,1,0,9,18320,14830.22222,133472,RM11.png,crisps_t.png,C10.png,C4.png,C3.png,C2.png,C9.png,C6.png,247588
21220,12:21:35,8704,710989801,choice,choice1,1,1,0,10,10383,14385.6,143856,RM11.png,sand_t.png,SW6.png,SW9.png,SW3.png,SW7.png,SW1.png,SW10.png,258541
21220,12:21:35,8704,710989801,choice,choice2,0,1,1,11,14006,14351.18182,157863,RM11.png,soup_t.png,S9.png,S12.png,S6.png,S1.png,S4.png,S3.png,273124
21220,12:21:35,8704,710989801,switch,choice2,0,1,1,11,14006,14351.18182,157863,S9.png,soup_t.png,S9.png,S12.png,S6.png,S1.png,S4.png,S3.png,277200
21220,12:21:35,8704,710989801,choice,choice2,0,1,1,12,10845,14059.08333,168709,S9.png,yog_t.png,Y1.png,Y8.png,Y3.png,Y12.png,Y10.png,Y2.png,288621
21220,12:21:35,8704,710989801,switch,choice2,0,0,1,12,10845,14059.08333,168709,Y1.png,yog_t.png,Y1.png,Y8.png,Y3.png,Y12.png,Y10.png,Y2.png,292733
21220,12:21:35,8704,710989801,choice,choice2,0,0,1,13,14095,14061.92308,182805,Y1.png,yog_t.png,Y4.png,Y8.png,Y3.png,Y2.png,Y10.png,Y11.png,307396
21220,12:21:35,8704,710989801,switch,choice2,0,0,1,13,14095,14061.92308,182805,Y4.png,yog_t.png,Y4.png,Y8.png,Y3.png,Y2.png,Y10.png,Y11.png,309164
21220,12:21:35,8704,710989801,choice,choice1,1,0,0,14,3691,13321.21429,186497,Y4.png,ready_t.png,RM9.png,RM4.png,RM11.png,RM5.png,RM2.png,RM12.png,313434
21220,12:21:35,8704,710989801,choice,choice3,0,0,1,15,15988,13499.06667,202486,Y4.png,sand_t.png,SW4.png,SW9.png,SW6.png,SW7.png,SW8.png,SW11.png,329995
21220,12:21:35,8704,710989801,switch,choice3,0,0,1,15,15988,13499.06667,202486,SW4.png,sand_t.png,SW4.png,SW9.png,SW6.png,SW7.png,SW8.png,SW11.png,333288
21220,12:21:35,8704,710989801,breaktime,choice3,0,0,1,15,15988,13499.06667,202486,SW4.png,sand_t.png,SW4.png,SW9.png,SW6.png,SW7.png,SW8.png,SW11.png,335117
21220,12:21:35,8704,710989801,choice,choice1,1,0,0,16,3386,12867.0625,205873,SW4.png,ready_t.png,RM9.png,RM4.png,RM12.png,RM5.png,RM13.png,RM8.png,339066
21220,12:21:35,8704,710989801,choice,choice1,1,0,0,17,13690,12915.52941,219564,SW4.png,ready_t.png,RM11.png,RM1.png,RM5.png,RM3.png,RM13.png,RM2.png,353318
21220,12:21:35,8704,710989801,choice,choice1,1,0,0,18,3420,12388.05556,222985,SW4.png,ready_t.png,RM11.png,RM1.png,RM5.png,RM7.png,RM13.png,RM2.png,357307
21220,12:21:35,8704,710989801,choice,choice1,1,0,0,19,4051,11949.31579,227037,SW4.png,cereal_t.png,BC2.png,BC1.png,BC12.png,BC4.png,BC8.png,BC5.png,361936
21220,12:21:35,8704,710989801,choice,choice2,0,0,1,20,6811,11692.45,233849,SW4.png,yog_t.png,Y6.png,Y13.png,Y12.png,Y10.png,Y2.png,Y3.png,369310
21220,12:21:35,8704,710989801,switch,choice2,0,0,1,20,6811,11692.45,233849,Y6.png,yog_t.png,Y6.png,Y13.png,Y12.png,Y10.png,Y2.png,Y3.png,371236
21220,12:21:35,8704,710989801,choice,choice1,1,0,0,21,5721,11408.14286,239571,Y6.png,soup_t.png,S9.png,S12.png,S13.png,S7.png,S3.png,S4.png,377532
21220,12:21:35,8704,710989801,choice,choice3,0,0,1,22,7194,11216.63636,246766,Y6.png,sand_t.png,SW4.png,SW9.png,SW6.png,SW7.png,SW3.png,SW5.png,385302
21220,12:21:35,8704,710989801,switch,choice3,0,0,1,22,7194,11216.63636,246766,SW4.png,sand_t.png,SW4.png,SW9.png,SW6.png,SW7.png,SW3.png,SW5.png,386840
21220,12:21:35,8704,710989801,choice,choice3,0,0,1,23,5367,10962.34783,252134,SW4.png,crisps_t.png,C4.png,C7.png,C3.png,C12.png,C6.png,C9.png,392770
21220,12:21:35,8704,710989801,switch,choice3,0,0,1,23,5367,10962.34783,252134,C4.png,crisps_t.png,C4.png,C7.png,C3.png,C12.png,C6.png,C9.png,394236
21220,12:21:35,8704,710989801,choice,choice2,0,0,1,24,3225,10640,255360,C4.png,soup_t.png,S5.png,S9.png,S6.png,S10.png,S13.png,S3.png,398024
21220,12:21:35,8704,710989801,switch,choice2,0,0,1,24,3225,10640,255360,S5.png,soup_t.png,S5.png,S9.png,S6.png,S10.png,S13.png,S3.png,399462
21220,12:21:35,8704,710989801,choice,choice1,1,0,0,25,2537,10315.92,257898,S5.png,cereal_t.png,BC3.png,BC11.png,BC2.png,BC9.png,BC8.png,BC1.png,402567
21220,12:21:35,8704,710989801,choice,choice1,1,0,0,26,4475,10091.30769,262374,S5.png,crisps_t.png,C5.png,C7.png,C3.png,C2.png,C11.png,C12.png,407620
21220,12:21:35,8704,710989801,choice,choice1,1,0,0,27,6005,9940,268380,S5.png,cereal_t.png,BC2.png,BC9.png,BC12.png,BC6.png,BC5.png,BC8.png,414197
21220,12:21:35,8704,710989801,choice,choice1,1,0,0,28,9177,9912.785714,277558,S5.png,yog_t.png,Y6.png,Y13.png,Y12.png,Y10.png,Y2.png,Y3.png,423950
21220,12:21:35,8704,710989801,choice,choice1,1,0,0,29,9106,9885,286665,S5.png,crisps_t.png,C10.png,C4.png,C3.png,C2.png,C9.png,C6.png,433624
21220,12:21:35,8704,710989801,choice,choice1,1,0,0,30,11720,9946.2,298386,S5.png,soup_t.png,S5.png,S12.png,S9.png,S3.png,S6.png,S13.png,445916
21220,14:38:23,8860,370431371,choice,choice1,1,0,0,1,40914,40915,40915,RM11.png,crisps_t.png,C10.png,C4.png,C3.png,C6.png,C2.png,C7.png,134820
21220,14:38:23,8860,370431371,choice,choice1,1,0,0,2,16703,28809.5,57619,RM11.png,ready_t.png,RM11.png,RM1.png,RM5.png,RM8.png,RM13.png,RM2.png,152162
21220,14:38:23,8860,370431371,choice,choice1,1,0,0,3,20634,26084.66667,78254,RM11.png,yog_t.png,Y1.png,Y8.png,Y3.png,Y12.png,Y10.png,Y2.png,173411
21220,14:38:23,8860,370431371,choice,choice3,0,0,1,4,12376,22657.75,90631,RM11.png,sand_t.png,SW4.png,SW9.png,SW6.png,SW7.png,SW3.png,SW5.png,186405
21220,14:38:23,8860,370431371,switch,choice3,0,0,1,4,12376,22657.75,90631,SW4.png,sand_t.png,SW4.png,SW9.png,SW6.png,SW7.png,SW3.png,SW5.png,198305
21220,14:38:23,8860,370431371,choice,choice2,0,0,1,5,7642,19654.8,98274,SW4.png,soup_t.png,S9.png,S12.png,S6.png,S1.png,S4.png,S3.png,206572
21220,14:38:23,8860,370431371,switch,choice2,0,0,1,5,7642,19654.8,98274,S9.png,soup_t.png,S9.png,S12.png,S6.png,S1.png,S4.png,S3.png,211379
21220,14:38:23,8860,370431371,choice,choice4,0,0,1,6,7156,17571.83333,105431,S9.png,yog_t.png,Y1.png,Y9.png,Y10.png,Y12.png,Y2.png,Y3.png,219154
21220,14:38:23,8860,370431371,switch,choice4,0,1,1,6,7156,17571.83333,105431,Y1.png,yog_t.png,Y1.png,Y9.png,Y10.png,Y12.png,Y2.png,Y3.png,223061
21220,14:38:23,8860,370431371,choice,choice2,0,1,1,7,10394,16546.57143,115826,Y1.png,soup_t.png,S9.png,S12.png,S13.png,S7.png,S3.png,S4.png,234076
21220,14:38:23,8860,370431371,switch,choice2,0,0,1,7,10394,16546.57143,115826,S9.png,soup_t.png,S9.png,S12.png,S13.png,S7.png,S3.png,S4.png,236738
21220,14:38:23,8860,370431371,choice,choice1,1,0,0,8,5654,15185.125,121481,S9.png,cereal_t.png,BC2.png,BC9.png,BC12.png,BC6.png,BC5.png,BC8.png,243039
21220,14:38:23,8860,370431371,choice,choice1,1,0,0,9,12494,14886.22222,133976,S9.png,soup_t.png,S5.png,S9.png,S6.png,S10.png,S13.png,S3.png,256160
21220,14:38:23,8860,370431371,choice,choice3,0,0,1,10,4222,13819.9,138199,S9.png,soup_t.png,S5.png,S12.png,S9.png,S13.png,S3.png,S7.png,261007
21220,14:38:23,8860,370431371,switch,choice3,0,1,1,10,4222,13819.9,138199,S5.png,soup_t.png,S5.png,S12.png,S9.png,S13.png,S3.png,S7.png,263267
21220,14:38:23,8860,370431371,choice,choice3,0,1,1,11,4066,12933.27273,142266,S5.png,sand_t.png,SW4.png,SW9.png,SW6.png,SW7.png,SW8.png,SW11.png,267951
21220,14:38:23,8860,370431371,switch,choice3,0,0,1,11,4066,12933.27273,142266,SW4.png,sand_t.png,SW4.png,SW9.png,SW6.png,SW7.png,SW8.png,SW11.png,270865
21220,14:38:23,8860,370431371,choice,choice1,1,0,0,12,6832,12424.91667,149099,SW4.png,crisps_t.png,C5.png,C7.png,C3.png,C2.png,C11.png,C12.png,278318
21220,14:38:23,8860,370431371,choice,choice1,1,0,0,13,9145,12172.69231,158245,SW4.png,ready_t.png,RM11.png,RM1.png,RM5.png,RM7.png,RM13.png,RM2.png,288080
21220,14:38:23,8860,370431371,choice,choice2,0,0,1,14,10496,12053,168742,SW4.png,crisps_t.png,C4.png,C7.png,C3.png,C12.png,C6.png,C9.png,299199
21220,14:38:23,8860,370431371,switch,choice2,0,0,1,14,10496,12053,168742,C4.png,crisps_t.png,C4.png,C7.png,C3.png,C12.png,C6.png,C9.png,301304
21220,14:38:23,8860,370431371,choice,choice2,0,0,1,15,3156,11459.93333,171899,C4.png,yog_t.png,Y4.png,Y8.png,Y3.png,Y2.png,Y10.png,Y11.png,305077
21220,14:38:23,8860,370431371,switch,choice2,0,1,1,15,3156,11459.93333,171899,Y4.png,yog_t.png,Y4.png,Y8.png,Y3.png,Y2.png,Y10.png,Y11.png,306671
21220,14:38:23,8860,370431371,breaktime,choice2,0,1,1,15,3156,11459.93333,171899,Y4.png,yog_t.png,Y4.png,Y8.png,Y3.png,Y2.png,Y10.png,Y11.png,310049
21220,14:38:23,8860,370431371,choice,choice3,0,1,1,16,4537,11027.3125,176437,Y4.png,cereal_t.png,BC3.png,BC1.png,BC2.png,BC5.png,BC8.png,BC9.png,315211
21220,14:38:23,8860,370431371,switch,choice3,0,0,1,16,4537,11027.3125,176437,BC3.png,cereal_t.png,BC3.png,BC1.png,BC2.png,BC5.png,BC8.png,BC9.png,317050
21220,14:38:23,8860,370431371,choice,choice1,1,0,0,17,1726,10480.23529,178164,BC3.png,soup_t.png,S5.png,S12.png,S9.png,S3.png,S6.png,S13.png,319398
21220,14:38:23,8860,370431371,choice,choice1,1,0,0,18,9824,10443.83333,187989,BC3.png,cereal_t.png,BC3.png,BC11.png,BC2.png,BC9.png,BC8.png,BC1.png,329846
21220,14:38:23,8860,370431371,choice,choice1,1,0,0,19,1814,9989.684211,189804,BC3.png,yog_t.png,Y6.png,Y13.png,Y12.png,Y10.png,Y2.png,Y3.png,332304
21220,14:38:23,8860,370431371,choice,choice2,0,0,1,20,6985,9839.5,196790,BC3.png,sand_t.png,SW6.png,SW11.png,SW10.png,SW7.png,SW1.png,SW8.png,339908
21220,14:38:23,8860,370431371,switch,choice2,0,1,1,20,6985,9839.5,196790,SW6.png,sand_t.png,SW6.png,SW11.png,SW10.png,SW7.png,SW1.png,SW8.png,342308
21220,14:38:23,8860,370431371,choice,choice1,1,1,0,21,2524,9491.190476,199315,SW6.png,crisps_t.png,C10.png,C4.png,C3.png,C2.png,C9.png,C6.png,345447
21220,14:38:23,8860,370431371,choice,choice1,1,1,0,22,4693,9273.136364,204009,SW6.png,ready_t.png,RM9.png,RM4.png,RM11.png,RM5.png,RM2.png,RM12.png,350767
21220,14:38:23,8860,370431371,choice,choice1,1,1,0,23,2149,8963.434783,206159,SW6.png,ready_t.png,RM9.png,RM4.png,RM12.png,RM5.png,RM13.png,RM8.png,353540
21220,14:38:23,8860,370431371,choice,choice1,1,1,0,24,3692,8743.833333,209852,SW6.png,sand_t.png,SW6.png,SW9.png,SW3.png,SW7.png,SW1.png,SW10.png,357850
21220,14:38:23,8860,370431371,choice,choice2,0,1,1,25,5297,8606,215150,SW6.png,yog_t.png,Y8.png,Y12.png,Y2.png,Y11.png,Y10.png,Y3.png,363771
21220,14:38:23,8860,370431371,switch,choice2,0,0,1,25,5297,8606,215150,Y8.png,yog_t.png,Y8.png,Y12.png,Y2.png,Y11.png,Y10.png,Y3.png,365470
21220,14:38:23,8860,370431371,choice,choice1,1,0,0,26,4932,8464.730769,220083,Y8.png,ready_t.png,RM11.png,RM1.png,RM5.png,RM3.png,RM13.png,RM2.png,371023
21220,14:38:23,8860,370431371,choice,choice4,0,0,1,27,7066,8412.962963,227150,Y8.png,cereal_t.png,BC3.png,BC11.png,BC2.png,BC12.png,BC8.png,BC1.png,378708
21220,14:38:23,8860,370431371,switch,choice4,0,0,1,27,7066,8412.962963,227150,BC3.png,cereal_t.png,BC3.png,BC11.png,BC2.png,BC12.png,BC8.png,BC1.png,380265
21220,14:38:23,8860,370431371,choice,choice1,1,0,0,28,5145,8296.285714,232296,BC3.png,yog_t.png,Y8.png,Y12.png,Y2.png,Y11.png,Y10.png,Y3.png,386021
21220,14:38:23,8860,370431371,choice,choice1,1,0,0,29,2532,8097.551724,234829,BC3.png,sand_t.png,SW6.png,SW9.png,SW8.png,SW7.png,SW1.png,SW11.png,389192
21220,14:38:23,8860,370431371,choice,choice1,1,0,0,30,4669,7983.3,239499,BC3.png,ready_t.png,RM9.png,RM4.png,RM11.png,RM5.png,RM2.png,RM12.png,394479
21220,15:05:01,9763,180823176,choice,choice3,0,0,1,1,11400,11401,11401,RM11.png,sand_t.png,SW4.png,SW9.png,SW6.png,SW7.png,SW8.png,SW11.png,65098
21220,15:05:01,9763,180823176,switch,choice3,0,0,1,1,11400,11401,11401,SW4.png,sand_t.png,SW4.png,SW9.png,SW6.png,SW7.png,SW8.png,SW11.png,70165
21220,15:05:01,9763,180823176,choice,choice1,1,0,0,2,2460,6931,13862,SW4.png,cereal_t.png,BC2.png,BC9.png,BC12.png,BC6.png,BC5.png,BC8.png,73254
21220,15:05:01,9763,180823176,choice,choice1,1,0,0,3,5304,6389,19167,SW4.png,cereal_t.png,BC3.png,BC11.png,BC2.png,BC9.png,BC8.png,BC1.png,79187
21220,15:05:01,9763,180823176,choice,choice1,1,0,0,4,3467,5658.75,22635,SW4.png,soup_t.png,S9.png,S12.png,S13.png,S7.png,S3.png,S4.png,83282
21220,15:05:01,9763,180823176,choice,choice1,1,0,0,5,3568,5240.8,26204,SW4.png,crisps_t.png,C5.png,C7.png,C3.png,C2.png,C11.png,C12.png,87468
21220,15:05:01,9763,180823176,choice,choice2,0,0,1,6,6663,5478,32868,SW4.png,crisps_t.png,C10.png,C4.png,C3.png,C6.png,C2.png,C7.png,94751
21220,15:05:01,9763,180823176,switch,choice2,0,1,1,6,6663,5478,32868,C10.png,crisps_t.png,C10.png,C4.png,C3.png,C6.png,C2.png,C7.png,96578
21220,15:05:01,9763,180823176,choice,choice3,0,1,1,7,3780,5235.571429,36649,C10.png,soup_t.png,S5.png,S12.png,S9.png,S3.png,S6.png,S13.png,100983
21220,15:05:01,9763,180823176,switch,choice3,0,1,1,7,3780,5235.571429,36649,S5.png,soup_t.png,S5.png,S12.png,S9.png,S3.png,S6.png,S13.png,102466
21220,15:05:01,9763,180823176,choice,choice1,1,1,0,8,4652,5162.75,41302,S5.png,ready_t.png,RM9.png,RM4.png,RM11.png,RM5.png,RM2.png,RM12.png,107742
21220,15:05:01,9763,180823176,choice,choice3,0,1,1,9,7601,5433.777778,48904,S5.png,sand_t.png,SW4.png,SW9.png,SW6.png,SW7.png,SW3.png,SW5.png,115961
21220,15:05:01,9763,180823176,switch,choice3,0,1,1,9,7601,5433.777778,48904,SW4.png,sand_t.png,SW4.png,SW9.png,SW6.png,SW7.png,SW3.png,SW5.png,117368
21220,15:05:01,9763,180823176,choice,choice1,1,1,0,10,2860,5176.5,51765,SW4.png,sand_t.png,SW6.png,SW9.png,SW3.png,SW7.png,SW1.png,SW10.png,120841
21220,15:05:01,9763,180823176,choice,choice1,1,1,0,11,3724,5044.545455,55490,SW4.png,sand_t.png,SW6.png,SW9.png,SW8.png,SW7.png,SW1.png,SW11.png,125188
21220,15:05:01,9763,180823176,choice,choice1,1,1,0,12,3428,4909.916667,58919,SW4.png,cereal_t.png,BC3.png,BC1.png,BC2.png,BC5.png,BC8.png,BC9.png,129243
21220,15:05:01,9763,180823176,choice,choice4,0,1,1,13,5459,4952.230769,64379,SW4.png,ready_t.png,RM11.png,RM1.png,RM5.png,RM7.png,RM13.png,RM2.png,135329
21220,15:05:01,9763,180823176,switch,choice4,0,1,1,13,5459,4952.230769,64379,RM11.png,ready_t.png,RM11.png,RM1.png,RM5.png,RM7.png,RM13.png,RM2.png,136833
21220,15:05:01,9763,180823176,choice,choice2,0,1,1,14,3224,4828.857143,67604,RM11.png,soup_t.png,S5.png,S9.png,S6.png,S10.png,S13.png,S3.png,140676
21220,15:05:01,9763,180823176,switch,choice2,0,1,1,14,3224,4828.857143,67604,S5.png,soup_t.png,S5.png,S9.png,S6.png,S10.png,S13.png,S3.png,142175
21220,15:05:01,9763,180823176,choice,choice1,1,1,0,15,2459,4670.933333,70064,S5.png,ready_t.png,RM9.png,RM4.png,RM12.png,RM5.png,RM13.png,RM8.png,145248
21220,15:05:01,9763,180823176,breaktime,choice1,1,1,0,15,2459,4670.933333,70064,S5.png,ready_t.png,RM9.png,RM4.png,RM12.png,RM5.png,RM13.png,RM8.png,149353
21220,15:05:01,9763,180823176,choice,choice2,0,1,1,16,3391,4591,73456,S5.png,yog_t.png,Y8.png,Y12.png,Y2.png,Y11.png,Y10.png,Y3.png,153368
21220,15:05:01,9763,180823176,switch,choice2,0,0,1,16,3391,4591,73456,Y8.png,yog_t.png,Y8.png,Y12.png,Y2.png,Y11.png,Y10.png,Y3.png,154670
21220,15:05:01,9763,180823176,choice,choice1,1,0,0,17,5085,4620.117647,78542,Y8.png,ready_t.png,RM11.png,RM1.png,RM5.png,RM8.png,RM13.png,RM2.png,160375
21220,15:05:01,9763,180823176,choice,choice1,1,0,0,18,4774,4628.722222,83317,Y8.png,cereal_t.png,BC2.png,BC1.png,BC12.png,BC4.png,BC8.png,BC5.png,165765
21220,15:05:01,9763,180823176,choice,choice1,1,0,0,19,3600,4574.631579,86918,Y8.png,soup_t.png,S5.png,S12.png,S9.png,S13.png,S3.png,S7.png,169992
21220,15:05:01,9763,180823176,choice,choice2,0,0,1,20,2725,4482.2,89644,Y8.png,yog_t.png,Y1.png,Y9.png,Y10.png,Y12.png,Y2.png,Y3.png,173335
21220,15:05:01,9763,180823176,switch,choice2,0,1,1,20,2725,4482.2,89644,Y1.png,yog_t.png,Y1.png,Y9.png,Y10.png,Y12.png,Y2.png,Y3.png,175129
21220,15:05:01,9763,180823176,choice,choice1,1,1,0,21,6511,4578.857143,96156,Y1.png,crisps_t.png,C4.png,C7.png,C3.png,C12.png,C6.png,C9.png,182257
21220,15:05:01,9763,180823176,choice,choice2,0,1,1,22,5336,4613.318182,101493,Y1.png,yog_t.png,Y6.png,Y13.png,Y12.png,Y10.png,Y2.png,Y3.png,188218
21220,15:05:01,9763,180823176,switch,choice2,0,1,1,22,5336,4613.318182,101493,Y6.png,yog_t.png,Y6.png,Y13.png,Y12.png,Y10.png,Y2.png,Y3.png,189739
21220,15:05:01,9763,180823176,choice,choice1,1,1,0,23,2657,4528.304348,104151,Y6.png,cereal_t.png,BC3.png,BC11.png,BC2.png,BC12.png,BC8.png,BC1.png,193024
21220,15:05:01,9763,180823176,choice,choice2,0,1,1,24,2635,4449.458333,106787,Y6.png,yog_t.png,Y4.png,Y8.png,Y3.png,Y2.png,Y10.png,Y11.png,196286
21220,15:05:01,9763,180823176,switch,choice2,0,1,1,24,2635,4449.458333,106787,Y4.png,yog_t.png,Y4.png,Y8.png,Y3.png,Y2.png,Y10.png,Y11.png,197851
21220,15:05:01,9763,180823176,choice,choice1,1,1,0,25,5032,4472.8,111820,Y4.png,crisps_t.png,C5.png,C10.png,C8.png,C9.png,C2.png,C6.png,203499
21220,15:05:01,9763,180823176,choice,choice2,0,1,1,26,3192,4423.576923,115013,Y4.png,soup_t.png,S9.png,S12.png,S6.png,S1.png,S4.png,S3.png,207307
21220,15:05:01,9763,180823176,switch,choice2,0,1,1,26,3192,4423.576923,115013,S9.png,soup_t.png,S9.png,S12.png,S6.png,S1.png,S4.png,S3.png,208618
21220,15:05:01,9763,180823176,choice,choice2,0,1,1,27,5749,4472.703704,120763,S9.png,sand_t.png,SW6.png,SW11.png,SW10.png,SW7.png,SW1.png,SW8.png,214992
21220,15:05:01,9763,180823176,switch,choice2,0,1,1,27,5749,4472.703704,120763,SW6.png,sand_t.png,SW6.png,SW11.png,SW10.png,SW7.png,SW1.png,SW8.png,216275
21220,15:05:01,9763,180823176,choice,choice2,0,1,1,28,745,4339.607143,121509,SW6.png,yog_t.png,Y4.png,Y8.png,Y3.png,Y2.png,Y10.png,Y11.png,217637
21220,15:05:01,9763,180823176,choice,choice3,0,1,1,29,6234,4404.965517,127744,SW6.png,sand_t.png,SW4.png,SW9.png,SW6.png,SW7.png,SW8.png,SW11.png,234525
21220,15:05:01,9763,180823176,switch,choice3,0,1,1,29,6234,4404.965517,127744,SW4.png,sand_t.png,SW4.png,SW9.png,SW6.png,SW7.png,SW8.png,SW11.png,236210
21220,15:05:01,9763,180823176,choice,choice4,0,1,1,30,7301,4501.533333,135046,SW4.png,ready_t.png,RM11.png,RM1.png,RM5.png,RM8.png,RM13.png,RM2.png,244127
21220,15:05:01,9763,180823176,switch,choice4,0,1,1,30,7301,4501.533333,135046,RM11.png,ready_t.png,RM11.png,RM1.png,RM5.png,RM8.png,RM13.png,RM2.png,245804
21320,15:15:32,9957,17418760,choice,choice2,0,0,1,1,21031,21032,21032,RM11.png,soup_t.png,S5.png,S9.png,S6.png,S10.png,S13.png,S3.png,90437
21320,15:15:32,9957,17418760,switch,choice2,0,1,1,1,21031,21032,21032,S5.png,soup_t.png,S5.png,S9.png,S6.png,S10.png,S13.png,S3.png,99423
21320,15:15:32,9957,17418760,choice,choice1,1,1,0,2,20814,20923.5,41847,S5.png,sand_t.png,SW6.png,SW9.png,SW3.png,SW7.png,SW1.png,SW10.png,120800
21320,15:15:32,9957,17418760,choice,choice2,0,1,1,3,16489,19445.66667,58337,S5.png,yog_t.png,Y1.png,Y8.png,Y3.png,Y12.png,Y10.png,Y2.png,137872
21320,15:15:32,9957,17418760,switch,choice2,0,0,1,3,16489,19445.66667,58337,Y1.png,yog_t.png,Y1.png,Y8.png,Y3.png,Y12.png,Y10.png,Y2.png,142078
21320,15:15:32,9957,17418760,choice,choice4,0,0,1,4,8722,16765,67060,Y1.png,ready_t.png,RM11.png,RM1.png,RM5.png,RM7.png,RM13.png,RM2.png,151369
21320,15:15:32,9957,17418760,switch,choice4,0,0,1,4,8722,16765,67060,RM11.png,ready_t.png,RM11.png,RM1.png,RM5.png,RM7.png,RM13.png,RM2.png,154410
21320,15:15:32,9957,17418760,choice,choice2,0,0,1,5,3946,14201.4,71007,RM11.png,yog_t.png,Y1.png,Y9.png,Y10.png,Y12.png,Y2.png,Y3.png,158926
21320,15:15:32,9957,17418760,switch,choice2,0,0,1,5,3946,14201.4,71007,Y1.png,yog_t.png,Y1.png,Y9.png,Y10.png,Y12.png,Y2.png,Y3.png,160952
21320,15:15:32,9957,17418760,choice,choice3,0,0,1,6,4451,12576.5,75459,Y1.png,cereal_t.png,BC3.png,BC11.png,BC2.png,BC12.png,BC8.png,BC1.png,165980
21320,15:15:32,9957,17418760,switch,choice3,0,0,1,6,4451,12576.5,75459,BC3.png,cereal_t.png,BC3.png,BC11.png,BC2.png,BC12.png,BC8.png,BC1.png,167169
21320,15:15:32,9957,17418760,choice,choice1,1,0,0,7,5931,11627.28571,81391,BC3.png,crisps_t.png,C5.png,C7.png,C3.png,C2.png,C11.png,C12.png,173676
21320,15:15:32,9957,17418760,choice,choice1,1,0,0,8,12026,11677.25,93418,BC3.png,soup_t.png,S5.png,S12.png,S9.png,S3.png,S6.png,S13.png,186269
21320,15:15:32,9957,17418760,choice,choice1,1,0,0,9,13866,11920.55556,107285,BC3.png,crisps_t.png,C4.png,C7.png,C3.png,C12.png,C6.png,C9.png,200708
21320,15:15:32,9957,17418760,choice,choice4,0,0,1,10,17319,12460.5,124605,BC3.png,sand_t.png,SW6.png,SW9.png,SW8.png,SW7.png,SW1.png,SW11.png,218593
21320,15:15:32,9957,17418760,switch,choice4,0,1,1,10,17319,12460.5,124605,SW6.png,sand_t.png,SW6.png,SW9.png,SW8.png,SW7.png,SW1.png,SW11.png,222755
21320,15:15:32,9957,17418760,choice,choice1,1,1,0,11,8244,12077.27273,132850,SW6.png,cereal_t.png,BC2.png,BC9.png,BC12.png,BC6.png,BC5.png,BC8.png,231582
21320,15:15:32,9957,17418760,choice,choice6,0,1,1,12,6889,11645,139740,SW6.png,cereal_t.png,BC2.png,BC1.png,BC12.png,BC4.png,BC8.png,BC5.png,239042
21320,15:15:32,9957,17418760,switch,choice6,0,0,1,12,6889,11645,139740,BC2.png,cereal_t.png,BC2.png,BC1.png,BC12.png,BC4.png,BC8.png,BC5.png,241092
21320,15:15:32,9957,17418760,choice,choice3,0,0,1,13,11494,11633.46154,151235,BC2.png,sand_t.png,SW4.png,SW9.png,SW6.png,SW7.png,SW3.png,SW5.png,253145
21320,15:15:32,9957,17418760,switch,choice3,0,0,1,13,11494,11633.46154,151235,SW4.png,sand_t.png,SW4.png,SW9.png,SW6.png,SW7.png,SW3.png,SW5.png,254997
21320,15:15:32,9957,17418760,choice,choice1,1,0,0,14,17212,12032,168448,SW4.png,ready_t.png,RM9.png,RM4.png,RM12.png,RM5.png,RM13.png,RM8.png,272778
21320,15:15:32,9957,17418760,choice,choice3,0,0,1,15,8139,11772.53333,176588,SW4.png,soup_t.png,S9.png,S12.png,S13.png,S7.png,S3.png,S4.png,281487
21320,15:15:32,9957,17418760,switch,choice3,0,1,1,15,8139,11772.53333,176588,S9.png,soup_t.png,S9.png,S12.png,S13.png,S7.png,S3.png,S4.png,283684
21320,15:15:32,9957,17418760,breaktime,choice3,0,1,1,15,8139,11772.53333,176588,S9.png,soup_t.png,S9.png,S12.png,S13.png,S7.png,S3.png,S4.png,286594
21320,15:15:32,9957,17418760,choice,choice1,1,1,0,16,7685,11517.125,184274,S9.png,ready_t.png,RM9.png,RM4.png,RM11.png,RM5.png,RM2.png,RM12.png,294847
21320,15:15:32,9957,17418760,choice,choice1,1,1,0,17,2200,10969.11765,186475,S9.png,yog_t.png,Y8.png,Y12.png,Y2.png,Y11.png,Y10.png,Y3.png,297612
21320,15:15:32,9957,17418760,choice,choice2,0,1,1,18,4559,10613.05556,191035,S9.png,crisps_t.png,C10.png,C4.png,C3.png,C6.png,C2.png,C7.png,302736
21320,15:15:32,9957,17418760,switch,choice2,0,0,1,18,4559,10613.05556,191035,C10.png,crisps_t.png,C10.png,C4.png,C3.png,C6.png,C2.png,C7.png,305789
21320,15:15:32,9957,17418760,choice,choice4,0,0,1,19,9374,10547.89474,200410,C10.png,ready_t.png,RM11.png,RM1.png,RM5.png,RM3.png,RM13.png,RM2.png,315734
21320,15:15:32,9957,17418760,switch,choice4,0,0,1,19,9374,10547.89474,200410,RM11.png,ready_t.png,RM11.png,RM1.png,RM5.png,RM3.png,RM13.png,RM2.png,318168
21320,15:15:32,9957,17418760,choice,choice1,1,0,0,20,3327,10186.9,203738,RM11.png,cereal_t.png,BC3.png,BC11.png,BC2.png,BC9.png,BC8.png,BC1.png,322069
21320,15:15:32,9957,17418760,choice,choice1,1,0,0,21,11705,10259.2381,215444,RM11.png,yog_t.png,Y6.png,Y13.png,Y12.png,Y10.png,Y2.png,Y3.png,334346
21320,15:15:32,9957,17418760,choice,choice6,0,0,1,22,18375,10628.18182,233820,RM11.png,crisps_t.png,C5.png,C10.png,C8.png,C9.png,C2.png,C6.png,353281
21320,15:15:32,9957,17418760,switch,choice6,0,0,1,22,18375,10628.18182,233820,C5.png,crisps_t.png,C5.png,C10.png,C8.png,C9.png,C2.png,C6.png,356826
21320,15:15:32,9957,17418760,choice,choice1,1,0,0,23,9925,10597.65217,243746,C5.png,soup_t.png,S9.png,S12.png,S6.png,S1.png,S4.png,S3.png,367312
21320,15:15:32,9957,17418760,choice,choice1,1,0,0,24,12486,10676.375,256233,C5.png,ready_t.png,RM11.png,RM1.png,RM5.png,RM8.png,RM13.png,RM2.png,380371
21320,15:15:32,9957,17418760,choice,choice3,0,0,1,25,23060,11171.76,279294,C5.png,soup_t.png,S5.png,S12.png,S9.png,S13.png,S3.png,S7.png,403994
21320,15:15:32,9957,17418760,switch,choice3,0,0,1,25,23060,11171.76,279294,S5.png,soup_t.png,S5.png,S12.png,S9.png,S13.png,S3.png,S7.png,405964
21320,15:15:32,9957,17418760,choice,choice2,0,0,1,26,5935,10970.38462,285230,S5.png,sand_t.png,SW6.png,SW11.png,SW10.png,SW7.png,SW1.png,SW8.png,412465
21320,15:15:32,9957,17418760,switch,choice2,0,0,1,26,5935,10970.38462,285230,SW6.png,sand_t.png,SW6.png,SW11.png,SW10.png,SW7.png,SW1.png,SW8.png,414460
21320,15:15:32,9957,17418760,choice,choice6,0,0,1,27,6853,10817.92593,292084,SW6.png,yog_t.png,Y4.png,Y8.png,Y3.png,Y2.png,Y10.png,Y11.png,421883
21320,15:15:32,9957,17418760,switch,choice6,0,0,1,27,6853,10817.92593,292084,Y4.png,yog_t.png,Y4.png,Y8.png,Y3.png,Y2.png,Y10.png,Y11.png,423493
21320,15:15:32,9957,17418760,choice,choice2,0,0,1,28,4417,10589.35714,296502,Y4.png,soup_t.png,S9.png,S12.png,S13.png,S7.png,S3.png,S4.png,428479
21320,15:15:32,9957,17418760,switch,choice2,0,0,1,28,4417,10589.35714,296502,S9.png,soup_t.png,S9.png,S12.png,S13.png,S7.png,S3.png,S4.png,430690
21320,15:15:32,9957,17418760,choice,choice4,0,0,1,29,6825,10459.58621,303328,S9.png,sand_t.png,SW6.png,SW9.png,SW3.png,SW7.png,SW1.png,SW10.png,438086
21320,15:15:32,9957,17418760,switch,choice4,0,0,1,29,6825,10459.58621,303328,SW6.png,sand_t.png,SW6.png,SW9.png,SW3.png,SW7.png,SW1.png,SW10.png,440281
21320,15:15:32,9957,17418760,choice,choice5,0,0,1,30,4340,10255.63333,307669,SW6.png,crisps_t.png,C10.png,C4.png,C3.png,C2.png,C9.png,C6.png,445183
21320,15:15:32,9957,17418760,switch,choice5,0,0,1,30,4340,10255.63333,307669,C10.png,crisps_t.png,C10.png,C4.png,C3.png,C2.png,C9.png,C6.png,446565
21320,16:03:44,9783,474205531,choice,choice1,1,0,0,1,7699,7700,7700,RM11.png,cereal_t.png,BC3.png,BC11.png,BC2.png,BC9.png,BC8.png,BC1.png,191820
21320,16:03:44,9783,474205531,choice,choice1,1,0,0,2,4508,6104.5,12209,RM11.png,yog_t.png,Y8.png,Y12.png,Y2.png,Y11.png,Y10.png,Y3.png,196956
21320,16:03:44,9783,474205531,choice,choice6,0,0,1,3,7249,6486.333333,19459,RM11.png,sand_t.png,SW6.png,SW9.png,SW8.png,SW7.png,SW1.png,SW11.png,204834
21320,16:03:44,9783,474205531,switch,choice6,0,1,1,3,7249,6486.333333,19459,SW6.png,sand_t.png,SW6.png,SW9.png,SW8.png,SW7.png,SW1.png,SW11.png,210576
21320,16:03:44,9783,474205531,choice,choice2,0,1,1,4,4738,6049.5,24198,SW6.png,yog_t.png,Y1.png,Y8.png,Y3.png,Y12.png,Y10.png,Y2.png,215940
21320,16:03:44,9783,474205531,switch,choice2,0,0,1,4,4738,6049.5,24198,Y1.png,yog_t.png,Y1.png,Y8.png,Y3.png,Y12.png,Y10.png,Y2.png,218160
21320,16:03:44,9783,474205531,choice,choice1,1,0,0,5,7307,6301.2,31506,Y1.png,crisps_t.png,C10.png,C4.png,C3.png,C6.png,C2.png,C7.png,226082
21320,16:03:44,9783,474205531,choice,choice3,0,0,1,6,11533,7173.333333,43040,Y1.png,sand_t.png,SW4.png,SW9.png,SW6.png,SW7.png,SW3.png,SW5.png,238233
21320,16:03:44,9783,474205531,switch,choice3,0,1,1,6,11533,7173.333333,43040,SW4.png,sand_t.png,SW4.png,SW9.png,SW6.png,SW7.png,SW3.png,SW5.png,239952
21320,16:03:44,9783,474205531,choice,choice2,0,1,1,7,7140,7168.714286,50181,SW4.png,soup_t.png,S9.png,S12.png,S13.png,S7.png,S3.png,S4.png,247705
21320,16:03:44,9783,474205531,switch,choice2,0,0,1,7,7140,7168.714286,50181,S9.png,soup_t.png,S9.png,S12.png,S13.png,S7.png,S3.png,S4.png,249440
21320,16:03:44,9783,474205531,choice,choice1,1,0,0,8,4630,6851.5,54812,S9.png,cereal_t.png,BC3.png,BC11.png,BC2.png,BC12.png,BC8.png,BC1.png,254689
21320,16:03:44,9783,474205531,choice,choice2,0,0,1,9,5925,6748.666667,60738,S9.png,yog_t.png,Y4.png,Y8.png,Y3.png,Y2.png,Y10.png,Y11.png,261241
21320,16:03:44,9783,474205531,switch,choice2,0,0,1,9,5925,6748.666667,60738,Y4.png,yog_t.png,Y4.png,Y8.png,Y3.png,Y2.png,Y10.png,Y11.png,264528
21320,16:03:44,9783,474205531,choice,choice2,0,0,1,10,9290,7002.9,70029,Y4.png,sand_t.png,SW6.png,SW11.png,SW10.png,SW7.png,SW1.png,SW8.png,274433
21320,16:03:44,9783,474205531,switch,choice2,0,1,1,10,9290,7002.9,70029,SW6.png,sand_t.png,SW6.png,SW11.png,SW10.png,SW7.png,SW1.png,SW8.png,280058
21320,16:03:44,9783,474205531,choice,choice2,0,1,1,11,8228,7114.363636,78258,SW6.png,yog_t.png,Y1.png,Y9.png,Y10.png,Y12.png,Y2.png,Y3.png,288889
21320,16:03:44,9783,474205531,switch,choice2,0,0,1,11,8228,7114.363636,78258,Y1.png,yog_t.png,Y1.png,Y9.png,Y10.png,Y12.png,Y2.png,Y3.png,293888
21320,16:03:44,9783,474205531,choice,choice1,1,0,0,12,6723,7081.833333,84982,Y1.png,ready_t.png,RM11.png,RM1.png,RM5.png,RM8.png,RM13.png,RM2.png,301233
21320,16:03:44,9783,474205531,choice,choice3,0,0,1,13,5686,6974.538462,90669,Y1.png,yog_t.png,Y6.png,Y13.png,Y12.png,Y10.png,Y2.png,Y3.png,307537
21320,16:03:44,9783,474205531,switch,choice3,0,0,1,13,5686,6974.538462,90669,Y6.png,yog_t.png,Y6.png,Y13.png,Y12.png,Y10.png,Y2.png,Y3.png,315016
21320,16:03:44,9783,474205531,choice,choice1,1,0,0,14,10111,7198.642857,100781,Y6.png,sand_t.png,SW6.png,SW9.png,SW3.png,SW7.png,SW1.png,SW10.png,325745
21320,16:03:44,9783,474205531,choice,choice1,1,0,0,15,8727,7300.6,109509,Y6.png,cereal_t.png,BC2.png,BC1.png,BC12.png,BC4.png,BC8.png,BC5.png,335089
21320,16:03:44,9783,474205531,breaktime,choice1,1,0,0,15,8727,7300.6,109509,Y6.png,cereal_t.png,BC2.png,BC1.png,BC12.png,BC4.png,BC8.png,BC5.png,695520
21320,16:03:44,9783,474205531,choice,choice1,1,0,0,16,6854,7272.75,116364,Y6.png,crisps_t.png,C10.png,C4.png,C3.png,C2.png,C9.png,C6.png,703020
21320,16:03:44,9783,474205531,choice,choice3,0,0,1,17,8562,7348.647059,124927,Y6.png,soup_t.png,S5.png,S12.png,S9.png,S13.png,S3.png,S7.png,712219
21320,16:03:44,9783,474205531,switch,choice3,0,0,1,17,8562,7348.647059,124927,S5.png,soup_t.png,S5.png,S12.png,S9.png,S13.png,S3.png,S7.png,717328
21320,16:03:44,9783,474205531,choice,choice1,1,0,0,18,4910,7213.222222,129838,S5.png,soup_t.png,S9.png,S12.png,S6.png,S1.png,S4.png,S3.png,722865
21320,16:03:44,9783,474205531,choice,choice1,1,0,0,19,2684,6974.894737,132523,S5.png,ready_t.png,RM9.png,RM4.png,RM11.png,RM5.png,RM2.png,RM12.png,726161
21320,16:03:44,9783,474205531,choice,choice2,0,0,1,20,8388,7045.6,140912,S5.png,soup_t.png,S5.png,S9.png,S6.png,S10.png,S13.png,S3.png,735173
21320,16:03:44,9783,474205531,switch,choice2,0,1,1,20,8388,7045.6,140912,S5.png,soup_t.png,S5.png,S9.png,S6.png,S10.png,S13.png,S3.png,736872
21320,16:03:44,9783,474205531,choice,choice3,0,1,1,21,7148,7050.52381,148061,S5.png,soup_t.png,S5.png,S12.png,S9.png,S3.png,S6.png,S13.png,744641
21320,16:03:44,9783,474205531,switch,choice3,0,0,1,21,7148,7050.52381,148061,S5.png,soup_t.png,S5.png,S12.png,S9.png,S3.png,S6.png,S13.png,746272
21320,16:03:44,9783,474205531,choice,choice4,0,0,1,22,3842,6904.727273,151904,S5.png,ready_t.png,RM11.png,RM1.png,RM5.png,RM7.png,RM13.png,RM2.png,750729
21320,16:03:44,9783,474205531,switch,choice4,0,0,1,22,3842,6904.727273,151904,RM11.png,ready_t.png,RM11.png,RM1.png,RM5.png,RM7.png,RM13.png,RM2.png,752000
21320,16:03:44,9783,474205531,choice,choice1,1,0,0,23,6814,6900.826087,158719,RM11.png,cereal_t.png,BC2.png,BC9.png,BC12.png,BC6.png,BC5.png,BC8.png,759443
21320,16:03:44,9783,474205531,choice,choice1,1,0,0,24,9651,7015.458333,168371,RM11.png,crisps_t.png,C5.png,C7.png,C3.png,C2.png,C11.png,C12.png,769737
21320,16:03:44,9783,474205531,choice,choice1,1,0,0,25,3853,6889,172225,RM11.png,ready_t.png,RM9.png,RM4.png,RM12.png,RM5.png,RM13.png,RM8.png,774220
21320,16:03:44,9783,474205531,choice,choice3,0,0,1,26,4581,6800.269231,176807,RM11.png,sand_t.png,SW4.png,SW9.png,SW6.png,SW7.png,SW8.png,SW11.png,779421
21320,16:03:44,9783,474205531,switch,choice3,0,1,1,26,4581,6800.269231,176807,SW4.png,sand_t.png,SW4.png,SW9.png,SW6.png,SW7.png,SW8.png,SW11.png,784560
21320,16:03:44,9783,474205531,choice,choice1,1,1,0,27,10149,6924.333333,186957,SW4.png,crisps_t.png,C4.png,C7.png,C3.png,C12.png,C6.png,C9.png,795329
21320,16:03:44,9783,474205531,choice,choice1,1,1,0,28,6195,6898.321429,193153,SW4.png,cereal_t.png,BC2.png,BC1.png,BC12.png,BC4.png,BC8.png,BC5.png,802137
21320,16:03:44,9783,474205531,choice,choice1,1,1,0,29,10970,7038.758621,204124,SW4.png,crisps_t.png,C10.png,C4.png,C3.png,C6.png,C2.png,C7.png,813721
21320,16:03:44,9783,474205531,choice,choice1,1,1,0,30,8462,7086.233333,212587,SW4.png,crisps_t.png,C5.png,C7.png,C3.png,C2.png,C11.png,C12.png,822814
21320,16:17:47,9787,10929076,choice,choice1,1,0,0,1,23375,23376,23376,RM11.png,soup_t.png,S5.png,S12.png,S9.png,S3.png,S6.png,S13.png,85500
21320,16:17:47,9787,10929076,choice,choice1,1,0,0,2,27196,25286.5,50573,RM11.png,cereal_t.png,BC3.png,BC1.png,BC2.png,BC5.png,BC8.png,BC9.png,113270
21320,16:17:47,9787,10929076,choice,choice6,0,0,1,3,24024,24866,74598,RM11.png,sand_t.png,SW4.png,SW9.png,SW6.png,SW7.png,SW8.png,SW11.png,137896
21320,16:17:47,9787,10929076,switch,choice6,0,0,1,3,24024,24866,74598,SW4.png,sand_t.png,SW4.png,SW9.png,SW6.png,SW7.png,SW8.png,SW11.png,147395
21320,16:17:47,9787,10929076,choice,choice1,1,0,0,4,2612,19302.75,77211,SW4.png,cereal_t.png,BC3.png,BC11.png,BC2.png,BC12.png,BC8.png,BC1.png,150600
21320,16:17:47,9787,10929076,choice,choice6,0,0,1,5,883,15619,78095,SW4.png,cereal_t.png,BC2.png,BC1.png,BC12.png,BC4.png,BC8.png,BC5.png,152054
21320,16:17:47,9787,10929076,choice,choice3,0,0,1,6,34694,18798.33333,112790,SW4.png,sand_t.png,SW6.png,SW9.png,SW8.png,SW7.png,SW1.png,SW11.png,197375
21320,16:17:47,9787,10929076,switch,choice3,0,1,1,6,34694,18798.33333,112790,SW6.png,sand_t.png,SW6.png,SW9.png,SW8.png,SW7.png,SW1.png,SW11.png,199343
21320,16:17:47,9787,10929076,choice,choice1,1,1,0,7,11699,17784.28571,124490,SW6.png,crisps_t.png,C5.png,C7.png,C3.png,C2.png,C11.png,C12.png,211617
21320,16:17:47,9787,10929076,choice,choice1,1,1,0,8,13902,17299.125,138393,SW6.png,soup_t.png,S9.png,S12.png,S6.png,S1.png,S4.png,S3.png,226087
21320,16:17:47,9787,10929076,choice,choice1,1,1,0,9,6992,16154,145386,SW6.png,ready_t.png,RM9.png,RM4.png,RM11.png,RM5.png,RM2.png,RM12.png,233738
21320,16:17:47,9787,10929076,choice,choice1,1,1,0,10,5828,15121.5,151215,SW6.png,yog_t.png,Y1.png,Y8.png,Y3.png,Y12.png,Y10.png,Y2.png,240189
21320,16:17:47,9787,10929076,choice,choice1,1,1,0,11,7381,14417.90909,158597,SW6.png,crisps_t.png,C10.png,C4.png,C3.png,C6.png,C2.png,C7.png,248161
21320,16:17:47,9787,10929076,choice,choice1,1,1,0,12,3931,13544.08333,162529,SW6.png,yog_t.png,Y8.png,Y12.png,Y2.png,Y11.png,Y10.png,Y3.png,252679
21320,16:17:47,9787,10929076,choice,choice1,1,1,0,13,11974,13423.38462,174504,SW6.png,soup_t.png,S9.png,S12.png,S13.png,S7.png,S3.png,S4.png,265261
21320,16:17:47,9787,10929076,choice,choice1,1,1,0,14,6072,12898.35714,180577,SW6.png,sand_t.png,SW6.png,SW9.png,SW3.png,SW7.png,SW1.png,SW10.png,271910
21320,16:17:47,9787,10929076,choice,choice2,0,1,1,15,8253,12588.73333,188831,SW6.png,sand_t.png,SW6.png,SW11.png,SW10.png,SW7.png,SW1.png,SW8.png,280736
21320,16:17:47,9787,10929076,switch,choice2,0,1,1,15,8253,12588.73333,188831,SW6.png,sand_t.png,SW6.png,SW11.png,SW10.png,SW7.png,SW1.png,SW8.png,283120
21320,16:17:47,9787,10929076,breaktime,choice2,0,1,1,15,8253,12588.73333,188831,SW6.png,sand_t.png,SW6.png,SW11.png,SW10.png,SW7.png,SW1.png,SW8.png,286224
21320,16:17:47,9787,10929076,choice,choice3,0,1,1,16,4922,12109.625,193754,SW6.png,soup_t.png,S5.png,S12.png,S9.png,S13.png,S3.png,S7.png,291736
21320,16:17:47,9787,10929076,switch,choice3,0,1,1,16,4922,12109.625,193754,S5.png,soup_t.png,S5.png,S12.png,S9.png,S13.png,S3.png,S7.png,293935
21320,16:17:47,9787,10929076,choice,choice1,1,1,0,17,8247,11882.47059,202002,S5.png,ready_t.png,RM11.png,RM1.png,RM5.png,RM3.png,RM13.png,RM2.png,302808
21320,16:17:47,9787,10929076,choice,choice2,0,1,1,18,14463,12025.88889,216466,S5.png,crisps_t.png,C4.png,C7.png,C3.png,C12.png,C6.png,C9.png,317842
21320,16:17:47,9787,10929076,switch,choice2,0,1,1,18,14463,12025.88889,216466,C4.png,crisps_t.png,C4.png,C7.png,C3.png,C12.png,C6.png,C9.png,319627
21320,16:17:47,9787,10929076,choice,choice1,1,1,0,19,4901,11650.94737,221368,C4.png,ready_t.png,RM11.png,RM1.png,RM5.png,RM8.png,RM13.png,RM2.png,325096
21320,16:17:47,9787,10929076,choice,choice1,1,1,0,20,3982,11267.55,225351,C4.png,soup_t.png,S5.png,S9.png,S6.png,S10.png,S13.png,S3.png,329643
21320,16:17:47,9787,10929076,choice,choice2,0,1,1,21,5937,11013.7619,231289,C4.png,yog_t.png,Y6.png,Y13.png,Y12.png,Y10.png,Y2.png,Y3.png,336148
21320,16:17:47,9787,10929076,switch,choice2,0,1,1,21,5937,11013.7619,231289,Y6.png,yog_t.png,Y6.png,Y13.png,Y12.png,Y10.png,Y2.png,Y3.png,338012
21320,16:17:47,9787,10929076,choice,choice1,1,1,0,22,2838,10642.18182,234128,Y6.png,cereal_t.png,BC2.png,BC9.png,BC12.png,BC6.png,BC5.png,BC8.png,341416
21320,16:17:47,9787,10929076,choice,choice1,1,1,0,23,4445,10372.78261,238574,Y6.png,yog_t.png,Y1.png,Y9.png,Y10.png,Y12.png,Y2.png,Y3.png,346439
21320,16:17:47,9787,10929076,choice,choice1,1,1,0,24,11046,10400.875,249621,Y6.png,crisps_t.png,C10.png,C4.png,C3.png,C2.png,C9.png,C6.png,358056
21320,16:17:47,9787,10929076,choice,choice1,1,1,0,25,15115,10589.48,264737,Y6.png,sand_t.png,SW4.png,SW9.png,SW6.png,SW7.png,SW3.png,SW5.png,373766
21320,16:17:47,9787,10929076,choice,choice1,1,1,0,26,4721,10363.80769,269459,Y6.png,cereal_t.png,BC3.png,BC11.png,BC2.png,BC9.png,BC8.png,BC1.png,379066
21320,16:17:47,9787,10929076,choice,choice1,1,1,0,27,2084,10057.18519,271544,Y6.png,ready_t.png,RM9.png,RM4.png,RM12.png,RM5.png,RM13.png,RM8.png,381710
21320,16:17:47,9787,10929076,choice,choice3,0,1,1,28,3815,9834.285714,275360,Y6.png,sand_t.png,SW4.png,SW9.png,SW6.png,SW7.png,SW3.png,SW5.png,386090
21320,16:17:47,9787,10929076,switch,choice3,0,1,1,28,3815,9834.285714,275360,SW4.png,sand_t.png,SW4.png,SW9.png,SW6.png,SW7.png,SW3.png,SW5.png,388001
21320,16:17:47,9787,10929076,choice,choice5,0,1,1,29,685,9518.827586,276046,SW4.png,ready_t.png,RM11.png,RM1.png,RM5.png,RM8.png,RM13.png,RM2.png,389260
21320,16:17:47,9787,10929076,choice,choice1,1,1,0,30,3542,9319.633333,279589,SW4.png,soup_t.png,S5.png,S9.png,S6.png,S10.png,S13.png,S3.png,403417
21320,16:40:19,9786,578534665,choice,choice1,1,0,0,1,18784,18785,18785,RM11.png,crisps_t.png,C10.png,C4.png,C3.png,C6.png,C2.png,C7.png,57117
21320,16:40:19,9786,578534665,choice,choice1,1,0,0,2,7985,13385.5,26771,RM11.png,ready_t.png,RM9.png,RM4.png,RM12.png,RM5.png,RM13.png,RM8.png,65677
21320,16:40:19,9786,578534665,choice,choice3,0,0,1,3,2687,9819.666667,29459,RM11.png,cereal_t.png,BC2.png,BC9.png,BC12.png,BC6.png,BC5.png,BC8.png,68933
21320,16:40:19,9786,578534665,switch,choice3,0,1,1,3,2687,9819.666667,29459,BC2.png,cereal_t.png,BC2.png,BC9.png,BC12.png,BC6.png,BC5.png,BC8.png,74237
21320,16:40:19,9786,578534665,choice,choice1,1,1,0,4,12597,10514.25,42057,BC2.png,ready_t.png,RM11.png,RM1.png,RM5.png,RM8.png,RM13.png,RM2.png,87397
21320,16:40:19,9786,578534665,choice,choice2,0,1,1,5,36777,15767,78835,BC2.png,sand_t.png,SW6.png,SW11.png,SW10.png,SW7.png,SW1.png,SW8.png,124733
21320,16:40:19,9786,578534665,switch,choice2,0,1,1,5,36777,15767,78835,SW6.png,sand_t.png,SW6.png,SW11.png,SW10.png,SW7.png,SW1.png,SW8.png,127381
21320,16:40:19,9786,578534665,choice,choice1,1,1,0,6,3816,13775.33333,82652,SW6.png,sand_t.png,SW6.png,SW9.png,SW3.png,SW7.png,SW1.png,SW10.png,131757
21320,16:40:19,9786,578534665,choice,choice1,1,1,0,7,40351,17572,123004,SW6.png,crisps_t.png,C10.png,C4.png,C3.png,C2.png,C9.png,C6.png,172677
21320,16:40:19,9786,578534665,choice,choice1,1,1,0,8,15409,17301.75,138414,SW6.png,yog_t.png,Y6.png,Y13.png,Y12.png,Y10.png,Y2.png,Y3.png,188653
21320,16:40:19,9786,578534665,choice,choice3,0,1,1,9,1466,15542.33333,139881,SW6.png,cereal_t.png,BC3.png,BC11.png,BC2.png,BC9.png,BC8.png,BC1.png,190701
21320,16:40:19,9786,578534665,switch,choice3,0,1,1,9,1466,15542.33333,139881,BC3.png,cereal_t.png,BC3.png,BC11.png,BC2.png,BC9.png,BC8.png,BC1.png,192494
21320,16:40:19,9786,578534665,choice,choice3,0,1,1,10,9696,14957.8,149578,BC3.png,soup_t.png,S5.png,S12.png,S9.png,S13.png,S3.png,S7.png,202749
21320,16:40:19,9786,578534665,switch,choice3,0,1,1,10,9696,14957.8,149578,S5.png,soup_t.png,S5.png,S12.png,S9.png,S13.png,S3.png,S7.png,204117
21320,16:40:19,9786,578534665,choice,choice6,0,1,1,11,34442,16729.18182,184021,S5.png,crisps_t.png,C4.png,C7.png,C3.png,C12.png,C6.png,C9.png,239118
21320,16:40:19,9786,578534665,switch,choice6,0,1,1,11,34442,16729.18182,184021,C4.png,crisps_t.png,C4.png,C7.png,C3.png,C12.png,C6.png,C9.png,240525
21320,16:40:19,9786,578534665,choice,choice3,0,1,1,12,4090,15676,188112,C4.png,soup_t.png,S5.png,S12.png,S9.png,S3.png,S6.png,S13.png,245182
21320,16:40:19,9786,578534665,switch,choice3,0,1,1,12,4090,15676,188112,S5.png,soup_t.png,S5.png,S12.png,S9.png,S3.png,S6.png,S13.png,246261
21320,16:40:19,9786,578534665,choice,choice1,1,1,0,13,2977,14699.23077,191090,S5.png,cereal_t.png,BC2.png,BC1.png,BC12.png,BC4.png,BC8.png,BC5.png,249805
21320,16:40:19,9786,578534665,choice,choice2,0,1,1,14,5234,14023.21429,196325,S5.png,yog_t.png,Y1.png,Y9.png,Y10.png,Y12.png,Y2.png,Y3.png,255597
21320,16:40:19,9786,578534665,switch,choice2,0,1,1,14,5234,14023.21429,196325,Y1.png,yog_t.png,Y1.png,Y9.png,Y10.png,Y12.png,Y2.png,Y3.png,256645
21320,16:40:19,9786,578534665,choice,choice1,1,1,0,15,5877,13480.2,202203,Y1.png,crisps_t.png,C5.png,C10.png,C8.png,C9.png,C2.png,C6.png,263093
21320,16:40:19,9786,578534665,breaktime,choice1,1,1,0,15,5877,13480.2,202203,Y1.png,crisps_t.png,C5.png,C10.png,C8.png,C9.png,C2.png,C6.png,265178
21320,16:40:19,9786,578534665,choice,choice1,1,1,0,16,5005,12950.5625,207209,Y1.png,crisps_t.png,C5.png,C7.png,C3.png,C2.png,C11.png,C12.png,270741
21320,16:40:19,9786,578534665,choice,choice2,0,1,1,17,5155,12492.05882,212365,Y1.png,yog_t.png,Y1.png,Y8.png,Y3.png,Y12.png,Y10.png,Y2.png,276461
21320,16:40:19,9786,578534665,switch,choice2,0,1,1,17,5155,12492.05882,212365,Y1.png,yog_t.png,Y1.png,Y8.png,Y3.png,Y12.png,Y10.png,Y2.png,277462
21320,16:40:19,9786,578534665,choice,choice3,0,1,1,18,1092,11858.77778,213458,Y1.png,cereal_t.png,BC3.png,BC1.png,BC2.png,BC5.png,BC8.png,BC9.png,279117
21320,16:40:19,9786,578534665,switch,choice3,0,1,1,18,1092,11858.77778,213458,BC3.png,cereal_t.png,BC3.png,BC1.png,BC2.png,BC5.png,BC8.png,BC9.png,280206
21320,16:40:19,9786,578534665,choice,choice6,0,1,1,19,3965,11443.36842,217424,BC3.png,sand_t.png,SW6.png,SW9.png,SW8.png,SW7.png,SW1.png,SW11.png,284725
21320,16:40:19,9786,578534665,switch,choice6,0,1,1,19,3965,11443.36842,217424,SW6.png,sand_t.png,SW6.png,SW9.png,SW8.png,SW7.png,SW1.png,SW11.png,285813
21320,16:40:19,9786,578534665,choice,choice5,0,1,1,20,1898,10966.15,219323,SW6.png,soup_t.png,S5.png,S9.png,S6.png,S10.png,S13.png,S3.png,288277
21320,16:40:19,9786,578534665,switch,choice5,0,1,1,20,1898,10966.15,219323,S5.png,soup_t.png,S5.png,S9.png,S6.png,S10.png,S13.png,S3.png,289349
21320,16:40:19,9786,578534665,choice,choice1,1,1,0,21,14563,11137.47619,233887,S5.png,ready_t.png,RM11.png,RM1.png,RM5.png,RM3.png,RM13.png,RM2.png,304477
21320,16:40:19,9786,578534665,choice,choice4,0,1,1,22,3760,10802.18182,237648,S5.png,ready_t.png,RM11.png,RM1.png,RM5.png,RM7.png,RM13.png,RM2.png,308797
21320,16:40:19,9786,578534665,switch,choice4,0,1,1,22,3760,10802.18182,237648,RM11.png,ready_t.png,RM11.png,RM1.png,RM5.png,RM7.png,RM13.png,RM2.png,309997
21320,16:40:19,9786,578534665,choice,choice1,1,1,0,23,5352,10565.26087,243001,RM11.png,soup_t.png,S9.png,S12.png,S13.png,S7.png,S3.png,S4.png,315910
21320,16:40:19,9786,578534665,choice,choice3,0,1,1,24,3897,10287.45833,246899,RM11.png,sand_t.png,SW4.png,SW9.png,SW6.png,SW7.png,SW3.png,SW5.png,320373
21320,16:40:19,9786,578534665,switch,choice3,0,1,1,24,3897,10287.45833,246899,SW4.png,sand_t.png,SW4.png,SW9.png,SW6.png,SW7.png,SW3.png,SW5.png,321445
21320,16:40:19,9786,578534665,choice,choice1,1,1,0,25,1793,9947.72,248693,SW4.png,ready_t.png,RM9.png,RM4.png,RM11.png,RM5.png,RM2.png,RM12.png,323805
21320,16:40:19,9786,578534665,choice,choice4,0,1,1,26,1298,9615.076923,249992,SW4.png,cereal_t.png,BC3.png,BC11.png,BC2.png,BC12.png,BC8.png,BC1.png,325661
21320,16:40:19,9786,578534665,switch,choice4,0,1,1,26,1298,9615.076923,249992,BC3.png,cereal_t.png,BC3.png,BC11.png,BC2.png,BC12.png,BC8.png,BC1.png,327397
21320,16:40:19,9786,578534665,choice,choice1,1,1,0,27,881,9291.62963,250874,BC3.png,soup_t.png,S9.png,S12.png,S6.png,S1.png,S4.png,S3.png,328845
21320,16:40:19,9786,578534665,choice,choice1,1,1,0,28,53614,10874.60714,304489,BC3.png,crisps_t.png,C5.png,C7.png,C3.png,C2.png,C11.png,C12.png,393118
21320,16:40:19,9786,578534665,choice,choice6,0,1,1,29,15632,11038.68966,320122,BC3.png,sand_t.png,SW4.png,SW9.png,SW6.png,SW7.png,SW8.png,SW11.png,409309
21320,16:40:19,9786,578534665,switch,choice6,0,1,1,29,15632,11038.68966,320122,SW4.png,sand_t.png,SW4.png,SW9.png,SW6.png,SW7.png,SW8.png,SW11.png,413501
21320,16:40:19,9786,578534665,choice,choice2,0,1,1,30,12887,11100.33333,333010,SW4.png,yog_t.png,Y1.png,Y8.png,Y3.png,Y12.png,Y10.png,Y2.png,426957
21320,16:40:19,9786,578534665,switch,choice2,0,1,1,30,12887,11100.33333,333010,Y1.png,yog_t.png,Y1.png,Y8.png,Y3.png,Y12.png,Y10.png,Y2.png,428182
21320,17:29:15,7846,962033816,choice,choice2,0,0,1,1,8462,8463,8463,RM11.png,yog_t.png,Y1.png,Y9.png,Y10.png,Y12.png,Y2.png,Y3.png,72186
21320,17:29:15,7846,962033816,switch,choice2,0,0,1,1,8462,8463,8463,Y1.png,yog_t.png,Y1.png,Y9.png,Y10.png,Y12.png,Y2.png,Y3.png,83619
21320,17:29:15,7846,962033816,choice,choice1,1,0,0,2,9692,9078,18156,Y1.png,cereal_t.png,BC2.png,BC9.png,BC12.png,BC6.png,BC5.png,BC8.png,93879
21320,17:29:15,7846,962033816,choice,choice1,1,0,0,3,12965,10374,31122,Y1.png,yog_t.png,Y4.png,Y8.png,Y3.png,Y2.png,Y10.png,Y11.png,107417
21320,17:29:15,7846,962033816,choice,choice3,0,0,1,4,12136,10814.75,43259,Y1.png,sand_t.png,SW4.png,SW9.png,SW6.png,SW7.png,SW3.png,SW5.png,120120
21320,17:29:15,7846,962033816,switch,choice3,0,0,1,4,12136,10814.75,43259,SW4.png,sand_t.png,SW4.png,SW9.png,SW6.png,SW7.png,SW3.png,SW5.png,127186
21320,17:29:15,7846,962033816,choice,choice3,0,0,1,5,10713,10794.6,53973,SW4.png,crisps_t.png,C4.png,C7.png,C3.png,C12.png,C6.png,C9.png,138476
21320,17:29:15,7846,962033816,switch,choice3,0,0,1,5,10713,10794.6,53973,C4.png,crisps_t.png,C4.png,C7.png,C3.png,C12.png,C6.png,C9.png,141578
21320,17:29:15,7846,962033816,choice,choice1,1,0,0,6,11117,10848.5,65091,C4.png,ready_t.png,RM11.png,RM1.png,RM5.png,RM3.png,RM13.png,RM2.png,153278
21320,17:29:15,7846,962033816,choice,choice1,1,0,0,7,7797,10412.71429,72889,C4.png,crisps_t.png,C5.png,C7.png,C3.png,C2.png,C11.png,C12.png,161639
21320,17:29:15,7846,962033816,choice,choice2,0,0,1,8,8454,10168,81344,C4.png,sand_t.png,SW6.png,SW11.png,SW10.png,SW7.png,SW1.png,SW8.png,170662
21320,17:29:15,7846,962033816,switch,choice2,0,0,1,8,8454,10168,81344,SW6.png,sand_t.png,SW6.png,SW11.png,SW10.png,SW7.png,SW1.png,SW8.png,176144
21320,17:29:15,7846,962033816,choice,choice1,1,0,0,9,4681,9558.444444,86026,SW6.png,ready_t.png,RM9.png,RM4.png,RM12.png,RM5.png,RM13.png,RM8.png,181403
21320,17:29:15,7846,962033816,choice,choice6,0,0,1,10,8576,9460.3,94603,SW6.png,sand_t.png,SW4.png,SW9.png,SW6.png,SW7.png,SW8.png,SW11.png,190547
21320,17:29:15,7846,962033816,switch,choice6,0,1,1,10,8576,9460.3,94603,SW4.png,sand_t.png,SW4.png,SW9.png,SW6.png,SW7.png,SW8.png,SW11.png,197748
21320,17:29:15,7846,962033816,choice,choice6,0,1,1,11,14118,9883.818182,108722,SW4.png,sand_t.png,SW6.png,SW9.png,SW8.png,SW7.png,SW1.png,SW11.png,212437
21320,17:29:15,7846,962033816,switch,choice6,0,0,1,11,14118,9883.818182,108722,SW6.png,sand_t.png,SW6.png,SW9.png,SW8.png,SW7.png,SW1.png,SW11.png,214197
21320,17:29:15,7846,962033816,choice,choice2,0,0,1,12,10886,9967.416667,119609,SW6.png,yog_t.png,Y6.png,Y13.png,Y12.png,Y10.png,Y2.png,Y3.png,225652
21320,17:29:15,7846,962033816,switch,choice2,0,0,1,12,10886,9967.416667,119609,Y6.png,yog_t.png,Y6.png,Y13.png,Y12.png,Y10.png,Y2.png,Y3.png,229334
21320,17:29:15,7846,962033816,choice,choice1,1,0,0,13,8557,9859,128167,Y6.png,crisps_t.png,C10.png,C4.png,C3.png,C6.png,C2.png,C7.png,238454
21320,17:29:15,7846,962033816,choice,choice1,1,0,0,14,6832,9642.857143,135000,Y6.png,ready_t.png,RM11.png,RM1.png,RM5.png,RM7.png,RM13.png,RM2.png,245860
21320,17:29:15,7846,962033816,choice,choice1,1,0,0,15,9911,9660.8,144912,Y6.png,soup_t.png,S5.png,S12.png,S9.png,S13.png,S3.png,S7.png,256338
21320,17:29:15,7846,962033816,breaktime,choice1,1,0,0,15,9911,9660.8,144912,Y6.png,soup_t.png,S5.png,S12.png,S9.png,S13.png,S3.png,S7.png,260728
21320,17:29:15,7846,962033816,choice,choice1,1,0,0,16,4614,9345.4375,149527,Y6.png,ready_t.png,RM9.png,RM4.png,RM11.png,RM5.png,RM2.png,RM12.png,265906
21320,17:29:15,7846,962033816,choice,choice1,1,0,0,17,5566,9123.176471,155094,Y6.png,crisps_t.png,C10.png,C4.png,C3.png,C2.png,C9.png,C6.png,272040
21320,17:29:15,7846,962033816,choice,choice1,1,0,0,18,9719,9156.333333,164814,Y6.png,cereal_t.png,BC3.png,BC11.png,BC2.png,BC12.png,BC8.png,BC1.png,282325
21320,17:29:15,7846,962033816,choice,choice1,1,0,0,19,5134,8944.684211,169949,Y6.png,yog_t.png,Y8.png,Y12.png,Y2.png,Y11.png,Y10.png,Y3.png,288022
21320,17:29:15,7846,962033816,choice,choice1,1,0,0,20,7655,8880.25,177605,Y6.png,soup_t.png,S5.png,S12.png,S9.png,S3.png,S6.png,S13.png,296242
21320,17:29:15,7846,962033816,choice,choice1,1,0,0,21,8284,8851.904762,185890,Y6.png,ready_t.png,RM11.png,RM1.png,RM5.png,RM8.png,RM13.png,RM2.png,305103
21320,17:29:15,7846,962033816,choice,choice2,0,0,1,22,6582,8748.772727,192473,Y6.png,soup_t.png,S9.png,S12.png,S13.png,S7.png,S3.png,S4.png,312266
21320,17:29:15,7846,962033816,switch,choice2,0,0,1,22,6582,8748.772727,192473,S9.png,soup_t.png,S9.png,S12.png,S13.png,S7.png,S3.png,S4.png,314769
21320,17:29:15,7846,962033816,choice,choice2,0,0,1,23,5409,8603.608696,197883,S9.png,soup_t.png,S9.png,S12.png,S6.png,S1.png,S4.png,S3.png,320741
21320,17:29:15,7846,962033816,switch,choice2,0,0,1,23,5409,8603.608696,197883,S9.png,soup_t.png,S9.png,S12.png,S6.png,S1.png,S4.png,S3.png,324577
21320,17:29:15,7846,962033816,choice,choice3,0,0,1,24,2420,8346,200304,S9.png,cereal_t.png,BC3.png,BC1.png,BC2.png,BC5.png,BC8.png,BC9.png,327568
21320,17:29:15,7846,962033816,switch,choice3,0,1,1,24,2420,8346,200304,BC3.png,cereal_t.png,BC3.png,BC1.png,BC2.png,BC5.png,BC8.png,BC9.png,331628
21320,17:29:15,7846,962033816,choice,choice1,1,1,0,25,3908,8168.52,204213,BC3.png,soup_t.png,S5.png,S9.png,S6.png,S10.png,S13.png,S3.png,336105
21320,17:29:15,7846,962033816,choice,choice1,1,1,0,26,3700,7996.692308,207914,BC3.png,cereal_t.png,BC2.png,BC1.png,BC12.png,BC4.png,BC8.png,BC5.png,340379
21320,17:29:15,7846,962033816,choice,choice2,0,1,1,27,9284,8044.407407,217199,BC3.png,yog_t.png,Y1.png,Y8.png,Y3.png,Y12.png,Y10.png,Y2.png,350229
21320,17:29:15,7846,962033816,switch,choice2,0,0,1,27,9284,8044.407407,217199,Y1.png,yog_t.png,Y1.png,Y8.png,Y3.png,Y12.png,Y10.png,Y2.png,352569
21320,17:29:15,7846,962033816,choice,choice1,1,0,0,28,6396,7985.571429,223596,Y1.png,ready_t.png,RM11.png,RM1.png,RM5.png,RM8.png,RM13.png,RM2.png,359539
21320,17:29:15,7846,962033816,choice,choice1,1,0,0,29,6440,7932.310345,230037,Y1.png,ready_t.png,RM9.png,RM4.png,RM12.png,RM5.png,RM13.png,RM8.png,366549
21320,17:29:15,7846,962033816,choice,choice6,0,0,1,30,10423,8015.366667,240461,Y1.png,sand_t.png,SW4.png,SW9.png,SW6.png,SW7.png,SW8.png,SW11.png,377547
21320,17:29:15,7846,962033816,switch,choice6,0,0,1,30,10423,8015.366667,240461,SW4.png,sand_t.png,SW4.png,SW9.png,SW6.png,SW7.png,SW8.png,SW11.png,379144
21420,10:20:27,9915,521675134,choice,choice1,1,0,0,1,15005,15006,15006,RM11.png,sand_t.png,SW6.png,SW9.png,SW3.png,SW7.png,SW1.png,SW10.png,110429
21420,10:20:27,9915,521675134,choice,choice6,0,0,1,2,28471,21739,43478,RM11.png,sand_t.png,SW6.png,SW11.png,SW10.png,SW7.png,SW1.png,SW8.png,139510
21420,10:20:27,9915,521675134,switch,choice6,0,1,1,2,28471,21739,43478,SW6.png,sand_t.png,SW6.png,SW11.png,SW10.png,SW7.png,SW1.png,SW8.png,151492
21420,10:20:27,9915,521675134,choice,choice1,1,1,0,3,9245,17574.66667,52724,SW6.png,soup_t.png,S5.png,S12.png,S9.png,S13.png,S3.png,S7.png,161354
21420,10:20:27,9915,521675134,choice,choice1,1,1,0,4,16716,17360.25,69441,SW6.png,soup_t.png,S5.png,S12.png,S9.png,S3.png,S6.png,S13.png,178692
21420,10:20:27,9915,521675134,choice,choice1,1,1,0,5,7750,15438.4,77192,SW6.png,crisps_t.png,C10.png,C4.png,C3.png,C6.png,C2.png,C7.png,187061
21420,10:20:27,9915,521675134,choice,choice2,0,1,1,6,20925,16353,98118,SW6.png,yog_t.png,Y4.png,Y8.png,Y3.png,Y2.png,Y10.png,Y11.png,208620
21420,10:20:27,9915,521675134,switch,choice2,0,1,1,6,20925,16353,98118,Y4.png,yog_t.png,Y4.png,Y8.png,Y3.png,Y2.png,Y10.png,Y11.png,212445
21420,10:20:27,9915,521675134,choice,choice1,1,1,0,7,15036,16165,113155,Y4.png,yog_t.png,Y8.png,Y12.png,Y2.png,Y11.png,Y10.png,Y3.png,228099
21420,10:20:27,9915,521675134,choice,choice1,1,1,0,8,11290,15555.75,124446,Y4.png,soup_t.png,S9.png,S12.png,S13.png,S7.png,S3.png,S4.png,240005
21420,10:20:27,9915,521675134,choice,choice4,0,1,1,9,21946,16265.88889,146393,Y4.png,sand_t.png,SW6.png,SW9.png,SW8.png,SW7.png,SW1.png,SW11.png,262578
21420,10:20:27,9915,521675134,switch,choice4,0,1,1,9,21946,16265.88889,146393,SW6.png,sand_t.png,SW6.png,SW9.png,SW8.png,SW7.png,SW1.png,SW11.png,266227
21420,10:20:27,9915,521675134,choice,choice6,0,1,1,10,11710,15810.4,158104,SW6.png,sand_t.png,SW4.png,SW9.png,SW6.png,SW7.png,SW8.png,SW11.png,278560
21420,10:20:27,9915,521675134,switch,choice6,0,0,1,10,11710,15810.4,158104,SW4.png,sand_t.png,SW4.png,SW9.png,SW6.png,SW7.png,SW8.png,SW11.png,280566
21420,10:20:27,9915,521675134,choice,choice1,1,0,0,11,12582,15517,170687,SW4.png,cereal_t.png,BC3.png,BC1.png,BC2.png,BC5.png,BC8.png,BC9.png,293767
21420,10:20:27,9915,521675134,choice,choice1,1,0,0,12,12360,15254,183048,SW4.png,ready_t.png,RM11.png,RM1.png,RM5.png,RM8.png,RM13.png,RM2.png,306762
21420,10:20:27,9915,521675134,choice,choice1,1,0,0,13,9905,14842.61538,192954,SW4.png,cereal_t.png,BC3.png,BC11.png,BC2.png,BC12.png,BC8.png,BC1.png,317291
21420,10:20:27,9915,521675134,choice,choice1,1,0,0,14,12455,14672.14286,205410,SW4.png,soup_t.png,S5.png,S9.png,S6.png,S10.png,S13.png,S3.png,330358
21420,10:20:27,9915,521675134,choice,choice1,1,0,0,15,8687,14273.2,214098,SW4.png,crisps_t.png,C4.png,C7.png,C3.png,C12.png,C6.png,C9.png,339675
21420,10:20:27,9915,521675134,breaktime,choice1,1,0,0,15,8687,14273.2,214098,SW4.png,crisps_t.png,C4.png,C7.png,C3.png,C12.png,C6.png,C9.png,351432
21420,10:20:27,9915,521675134,choice,choice1,1,0,0,16,4252,13646.9375,218351,SW4.png,ready_t.png,RM9.png,RM4.png,RM11.png,RM5.png,RM2.png,RM12.png,356308
21420,10:20:27,9915,521675134,choice,choice1,1,0,0,17,8215,13327.47059,226567,SW4.png,crisps_t.png,C10.png,C4.png,C3.png,C2.png,C9.png,C6.png,365137
21420,10:20:27,9915,521675134,choice,choice1,1,0,0,18,8357,13051.38889,234925,SW4.png,soup_t.png,S9.png,S12.png,S6.png,S1.png,S4.png,S3.png,374115
21420,10:20:27,9915,521675134,choice,choice1,1,0,0,19,11873,12989.42105,246799,SW4.png,crisps_t.png,C5.png,C7.png,C3.png,C2.png,C11.png,C12.png,386615
21420,10:20:27,9915,521675134,choice,choice2,0,0,1,20,11222,12901.1,258022,SW4.png,yog_t.png,Y1.png,Y8.png,Y3.png,Y12.png,Y10.png,Y2.png,398482
21420,10:20:27,9915,521675134,switch,choice2,0,1,1,20,11222,12901.1,258022,Y1.png,yog_t.png,Y1.png,Y8.png,Y3.png,Y12.png,Y10.png,Y2.png,400591
21420,10:20:27,9915,521675134,choice,choice1,1,1,0,21,16371,13066.38095,274394,Y1.png,sand_t.png,SW4.png,SW9.png,SW6.png,SW7.png,SW3.png,SW5.png,417597
21420,10:20:27,9915,521675134,choice,choice3,0,1,1,22,12132,13023.95455,286527,Y1.png,yog_t.png,Y6.png,Y13.png,Y12.png,Y10.png,Y2.png,Y3.png,430342
21420,10:20:27,9915,521675134,switch,choice3,0,1,1,22,12132,13023.95455,286527,Y6.png,yog_t.png,Y6.png,Y13.png,Y12.png,Y10.png,Y2.png,Y3.png,434953
21420,10:20:27,9915,521675134,choice,choice1,1,1,0,23,8976,12848,295504,Y6.png,cereal_t.png,BC3.png,BC11.png,BC2.png,BC9.png,BC8.png,BC1.png,444555
21420,10:20:27,9915,521675134,choice,choice1,1,1,0,24,5657,12548.41667,301162,Y6.png,ready_t.png,RM9.png,RM4.png,RM12.png,RM5.png,RM13.png,RM8.png,450837
21420,10:20:27,9915,521675134,choice,choice1,1,1,0,25,5186,12253.96,306349,Y6.png,ready_t.png,RM11.png,RM1.png,RM5.png,RM7.png,RM13.png,RM2.png,456649
21420,10:20:27,9915,521675134,choice,choice2,0,1,1,26,9196,12136.38462,315546,Y6.png,yog_t.png,Y1.png,Y9.png,Y10.png,Y12.png,Y2.png,Y3.png,466459
21420,10:20:27,9915,521675134,switch,choice2,0,1,1,26,9196,12136.38462,315546,Y1.png,yog_t.png,Y1.png,Y9.png,Y10.png,Y12.png,Y2.png,Y3.png,470132
21420,10:20:27,9915,521675134,choice,choice1,1,1,0,27,6521,11928.44444,322068,Y1.png,ready_t.png,RM11.png,RM1.png,RM5.png,RM3.png,RM13.png,RM2.png,477268
21420,10:20:27,9915,521675134,choice,choice2,0,1,1,28,5555,11700.85714,327624,Y1.png,yog_t.png,Y6.png,Y13.png,Y12.png,Y10.png,Y2.png,Y3.png,483436
21420,10:20:27,9915,521675134,switch,choice2,0,0,1,28,5555,11700.85714,327624,Y6.png,yog_t.png,Y6.png,Y13.png,Y12.png,Y10.png,Y2.png,Y3.png,485471
21420,10:20:27,9915,521675134,choice,choice6,0,0,1,29,19713,11977.17241,347338,Y6.png,sand_t.png,SW6.png,SW9.png,SW8.png,SW7.png,SW1.png,SW11.png,505812
21420,10:20:27,9915,521675134,switch,choice6,0,1,1,29,19713,11977.17241,347338,SW6.png,sand_t.png,SW6.png,SW9.png,SW8.png,SW7.png,SW1.png,SW11.png,507398
21420,10:20:27,9915,521675134,choice,choice1,1,1,0,30,9428,11892.23333,356767,SW6.png,cereal_t.png,BC2.png,BC9.png,BC12.png,BC6.png,BC5.png,BC8.png,517445
21420,21:13:31,8781,686883953,choice,choice1,1,0,0,1,20555,20556,20556,RM11.png,ready_t.png,RM9.png,RM4.png,RM12.png,RM5.png,RM13.png,RM8.png,145339
21420,21:13:31,8781,686883953,choice,choice3,0,0,1,2,26555,23556,47112,RM11.png,sand_t.png,SW4.png,SW9.png,SW6.png,SW7.png,SW8.png,SW11.png,172501
21420,21:13:31,8781,686883953,switch,choice3,0,1,1,2,26555,23556,47112,SW4.png,sand_t.png,SW4.png,SW9.png,SW6.png,SW7.png,SW8.png,SW11.png,177873
21420,21:13:31,8781,686883953,choice,choice2,0,1,1,3,20579,22564,67692,SW4.png,yog_t.png,Y1.png,Y8.png,Y3.png,Y12.png,Y10.png,Y2.png,199065
21420,21:13:31,8781,686883953,switch,choice2,0,1,1,3,20579,22564,67692,Y1.png,yog_t.png,Y1.png,Y8.png,Y3.png,Y12.png,Y10.png,Y2.png,201965
21420,21:13:31,8781,686883953,choice,choice1,1,1,0,4,9812,19376.25,77505,Y1.png,sand_t.png,SW6.png,SW9.png,SW3.png,SW7.png,SW1.png,SW10.png,212391
21420,21:13:31,8781,686883953,choice,choice2,0,1,1,5,17446,18990.4,94952,Y1.png,yog_t.png,Y4.png,Y8.png,Y3.png,Y2.png,Y10.png,Y11.png,230451
21420,21:13:31,8781,686883953,switch,choice2,0,1,1,5,17446,18990.4,94952,Y4.png,yog_t.png,Y4.png,Y8.png,Y3.png,Y2.png,Y10.png,Y11.png,232355
21420,21:13:31,8781,686883953,choice,choice3,0,1,1,6,9688,17440.16667,104641,Y4.png,soup_t.png,S5.png,S12.png,S9.png,S13.png,S3.png,S7.png,242663
21420,21:13:31,8781,686883953,switch,choice3,0,1,1,6,9688,17440.16667,104641,S5.png,soup_t.png,S5.png,S12.png,S9.png,S13.png,S3.png,S7.png,244205
21420,21:13:31,8781,686883953,choice,choice1,1,1,0,7,4449,15584.42857,109091,S5.png,ready_t.png,RM11.png,RM1.png,RM5.png,RM7.png,RM13.png,RM2.png,249280
21420,21:13:31,8781,686883953,choice,choice1,1,1,0,8,10537,14953.625,119629,S5.png,crisps_t.png,C5.png,C7.png,C3.png,C2.png,C11.png,C12.png,260439
21420,21:13:31,8781,686883953,choice,choice3,0,1,1,9,15077,14967.44444,134707,S5.png,crisps_t.png,C10.png,C4.png,C3.png,C2.png,C9.png,C6.png,276136
21420,21:13:31,8781,686883953,switch,choice3,0,1,1,9,15077,14967.44444,134707,C10.png,crisps_t.png,C10.png,C4.png,C3.png,C2.png,C9.png,C6.png,277893
21420,21:13:31,8781,686883953,choice,choice2,0,1,1,10,8122,14283,142830,C10.png,soup_t.png,S5.png,S9.png,S6.png,S10.png,S13.png,S3.png,286640
21420,21:13:31,8781,686883953,switch,choice2,0,1,1,10,8122,14283,142830,S5.png,soup_t.png,S5.png,S9.png,S6.png,S10.png,S13.png,S3.png,287893
21420,21:13:31,8781,686883953,choice,choice1,1,1,0,11,12206,14094.27273,155037,S5.png,cereal_t.png,BC3.png,BC1.png,BC2.png,BC5.png,BC8.png,BC9.png,300716
21420,21:13:31,8781,686883953,choice,choice3,0,1,1,12,9209,13687.25,164247,S5.png,crisps_t.png,C10.png,C4.png,C3.png,C6.png,C2.png,C7.png,310538
21420,21:13:31,8781,686883953,switch,choice3,0,1,1,12,9209,13687.25,164247,C10.png,crisps_t.png,C10.png,C4.png,C3.png,C6.png,C2.png,C7.png,312122
21420,21:13:31,8781,686883953,choice,choice1,1,1,0,13,4986,13018,169234,C10.png,ready_t.png,RM11.png,RM1.png,RM5.png,RM8.png,RM13.png,RM2.png,317723
21420,21:13:31,8781,686883953,choice,choice1,1,1,0,14,7738,12640.92857,176973,C10.png,soup_t.png,S9.png,S12.png,S6.png,S1.png,S4.png,S3.png,326079
21420,21:13:31,8781,686883953,choice,choice6,0,1,1,15,13780,12716.93333,190754,C10.png,sand_t.png,SW6.png,SW9.png,SW8.png,SW7.png,SW1.png,SW11.png,340485
21420,21:13:31,8781,686883953,switch,choice6,0,1,1,15,13780,12716.93333,190754,SW6.png,sand_t.png,SW6.png,SW9.png,SW8.png,SW7.png,SW1.png,SW11.png,342104
21420,21:13:31,8781,686883953,breaktime,choice6,0,1,1,15,13780,12716.93333,190754,SW6.png,sand_t.png,SW6.png,SW9.png,SW8.png,SW7.png,SW1.png,SW11.png,345142
21420,21:13:31,8781,686883953,choice,choice1,1,1,0,16,21685,13277.5,212440,SW6.png,cereal_t.png,BC3.png,BC11.png,BC2.png,BC9.png,BC8.png,BC1.png,367445
21420,21:13:31,8781,686883953,choice,choice2,0,1,1,17,9239,13040,221680,SW6.png,soup_t.png,S5.png,S12.png,S9.png,S3.png,S6.png,S13.png,377296
21420,21:13:31,8781,686883953,switch,choice2,0,1,1,17,9239,13040,221680,S5.png,soup_t.png,S5.png,S12.png,S9.png,S3.png,S6.png,S13.png,378594
21420,21:13:31,8781,686883953,choice,choice1,1,1,0,18,10666,12908.16667,232347,S5.png,ready_t.png,RM9.png,RM4.png,RM11.png,RM5.png,RM2.png,RM12.png,389878
21420,21:13:31,8781,686883953,choice,choice1,1,1,0,19,11718,12845.57895,244066,S5.png,soup_t.png,S9.png,S12.png,S13.png,S7.png,S3.png,S4.png,402222
21420,21:13:31,8781,686883953,choice,choice1,1,1,0,20,4213,12414,248280,S5.png,yog_t.png,Y8.png,Y12.png,Y2.png,Y11.png,Y10.png,Y3.png,407055
21420,21:13:31,8781,686883953,choice,choice1,1,1,0,21,10592,12327.28571,258873,S5.png,crisps_t.png,C4.png,C7.png,C3.png,C12.png,C6.png,C9.png,418272
21420,21:13:31,8781,686883953,choice,choice4,0,1,1,22,3753,11937.59091,262627,S5.png,cereal_t.png,BC3.png,BC11.png,BC2.png,BC12.png,BC8.png,BC1.png,422641
21420,21:13:31,8781,686883953,switch,choice4,0,1,1,22,3753,11937.59091,262627,BC3.png,cereal_t.png,BC3.png,BC11.png,BC2.png,BC12.png,BC8.png,BC1.png,424360
21420,21:13:31,8781,686883953,choice,choice1,1,1,0,23,5566,11660.6087,268194,BC3.png,cereal_t.png,BC2.png,BC9.png,BC12.png,BC6.png,BC5.png,BC8.png,430538
21420,21:13:31,8781,686883953,choice,choice1,1,1,0,24,4313,11354.5,272508,BC3.png,cereal_t.png,BC2.png,BC1.png,BC12.png,BC4.png,BC8.png,BC5.png,435470
21420,21:13:31,8781,686883953,choice,choice2,0,1,1,25,6532,11161.64,279041,BC3.png,yog_t.png,Y6.png,Y13.png,Y12.png,Y10.png,Y2.png,Y3.png,442628
21420,21:13:31,8781,686883953,switch,choice2,0,1,1,25,6532,11161.64,279041,Y6.png,yog_t.png,Y6.png,Y13.png,Y12.png,Y10.png,Y2.png,Y3.png,444238
21420,21:13:31,8781,686883953,choice,choice2,0,1,1,26,2853,10842.11538,281895,Y6.png,ready_t.png,RM11.png,RM1.png,RM5.png,RM3.png,RM13.png,RM2.png,447712
21420,21:13:31,8781,686883953,switch,choice2,0,1,1,26,2853,10842.11538,281895,RM11.png,ready_t.png,RM11.png,RM1.png,RM5.png,RM3.png,RM13.png,RM2.png,449026
21420,21:13:31,8781,686883953,choice,choice4,0,1,1,27,339,10453.14815,282235,RM11.png,sand_t.png,SW6.png,SW11.png,SW10.png,SW7.png,SW1.png,SW8.png,449986
21420,21:13:31,8781,686883953,choice,choice6,0,1,1,28,8887,10397.25,291123,RM11.png,sand_t.png,SW6.png,SW9.png,SW8.png,SW7.png,SW1.png,SW11.png,469526
21420,21:13:31,8781,686883953,switch,choice6,0,1,1,28,8887,10397.25,291123,SW6.png,sand_t.png,SW6.png,SW9.png,SW8.png,SW7.png,SW1.png,SW11.png,471325
21420,21:13:31,8781,686883953,choice,choice4,0,1,1,29,9137,10353.82759,300261,SW6.png,ready_t.png,RM11.png,RM1.png,RM5.png,RM8.png,RM13.png,RM2.png,481082
21420,21:13:31,8781,686883953,switch,choice4,0,1,1,29,9137,10353.82759,300261,RM11.png,ready_t.png,RM11.png,RM1.png,RM5.png,RM8.png,RM13.png,RM2.png,482481
21420,21:13:31,8781,686883953,choice,choice4,0,1,1,30,3507,10125.63333,303769,RM11.png,ready_t.png,RM11.png,RM1.png,RM5.png,RM7.png,RM13.png,RM2.png,486610
21420,21:13:31,8781,686883953,switch,choice4,0,1,1,30,3507,10125.63333,303769,RM11.png,ready_t.png,RM11.png,RM1.png,RM5.png,RM7.png,RM13.png,RM2.png,487825
21520,20:34:06,8660,881866896,choice,choice2,0,0,1,1,24807,24808,24808,RM11.png,yog_t.png,Y1.png,Y9.png,Y10.png,Y12.png,Y2.png,Y3.png,108654
21520,20:34:06,8660,881866896,switch,choice2,0,1,1,1,24807,24808,24808,Y1.png,yog_t.png,Y1.png,Y9.png,Y10.png,Y12.png,Y2.png,Y3.png,115887
21520,20:34:06,8660,881866896,choice,choice1,1,1,0,2,15923,20366,40732,Y1.png,crisps_t.png,C10.png,C4.png,C3.png,C2.png,C9.png,C6.png,132401
21520,20:34:06,8660,881866896,choice,choice1,1,1,0,3,14227,18320,54960,Y1.png,sand_t.png,SW4.png,SW9.png,SW6.png,SW7.png,SW3.png,SW5.png,147262
21520,20:34:06,8660,881866896,choice,choice1,1,1,0,4,6346,15326.75,61307,Y1.png,soup_t.png,S9.png,S12.png,S13.png,S7.png,S3.png,S4.png,154223
21520,20:34:06,8660,881866896,choice,choice1,1,1,0,5,15366,15334.8,76674,Y1.png,yog_t.png,Y6.png,Y13.png,Y12.png,Y10.png,Y2.png,Y3.png,170199
21520,20:34:06,8660,881866896,choice,choice1,1,1,0,6,14795,15245,91470,Y1.png,soup_t.png,S5.png,S12.png,S9.png,S3.png,S6.png,S13.png,185588
21520,20:34:06,8660,881866896,choice,choice1,1,1,0,7,12680,14878.71429,104151,Y1.png,cereal_t.png,BC3.png,BC11.png,BC2.png,BC12.png,BC8.png,BC1.png,198879
21520,20:34:06,8660,881866896,choice,choice1,1,1,0,8,11392,14443,115544,Y1.png,soup_t.png,S9.png,S12.png,S6.png,S1.png,S4.png,S3.png,210870
21520,20:34:06,8660,881866896,choice,choice3,0,1,1,9,10300,13982.77778,125845,Y1.png,crisps_t.png,C5.png,C7.png,C3.png,C2.png,C11.png,C12.png,221759
21520,20:34:06,8660,881866896,switch,choice3,0,0,1,9,10300,13982.77778,125845,C5.png,crisps_t.png,C5.png,C7.png,C3.png,C2.png,C11.png,C12.png,225502
21520,20:34:06,8660,881866896,choice,choice3,0,0,1,10,18721,14456.7,144567,C5.png,sand_t.png,SW4.png,SW9.png,SW6.png,SW7.png,SW8.png,SW11.png,244806
21520,20:34:06,8660,881866896,switch,choice3,0,0,1,10,18721,14456.7,144567,SW4.png,sand_t.png,SW4.png,SW9.png,SW6.png,SW7.png,SW8.png,SW11.png,247201
21520,20:34:06,8660,881866896,choice,choice1,1,0,0,11,2989,13414.27273,147557,SW4.png,ready_t.png,RM9.png,RM4.png,RM12.png,RM5.png,RM13.png,RM8.png,250773
21520,20:34:06,8660,881866896,choice,choice1,1,0,0,12,8959,13043.08333,156517,SW4.png,yog_t.png,Y1.png,Y8.png,Y3.png,Y12.png,Y10.png,Y2.png,260304
21520,20:34:06,8660,881866896,choice,choice1,1,0,0,13,12697,13016.53846,169215,SW4.png,soup_t.png,S5.png,S12.png,S9.png,S13.png,S3.png,S7.png,273593
21520,20:34:06,8660,881866896,choice,choice1,1,0,0,14,7467,12620.21429,176683,SW4.png,cereal_t.png,BC2.png,BC1.png,BC12.png,BC4.png,BC8.png,BC5.png,281659
21520,20:34:06,8660,881866896,choice,choice1,1,0,0,15,8416,12340,185100,SW4.png,cereal_t.png,BC3.png,BC1.png,BC2.png,BC5.png,BC8.png,BC9.png,290661
21520,20:34:06,8660,881866896,breaktime,choice1,1,0,0,15,8416,12340,185100,SW4.png,cereal_t.png,BC3.png,BC1.png,BC2.png,BC5.png,BC8.png,BC9.png,398047
21520,20:34:06,8660,881866896,choice,choice2,0,0,1,16,11907,12313,197008,SW4.png,crisps_t.png,C5.png,C10.png,C8.png,C9.png,C2.png,C6.png,410549
21520,20:34:06,8660,881866896,switch,choice2,0,1,1,16,11907,12313,197008,C5.png,crisps_t.png,C5.png,C10.png,C8.png,C9.png,C2.png,C6.png,421432
21520,20:34:06,8660,881866896,choice,choice1,1,1,0,17,4052,11827.11765,201061,C5.png,ready_t.png,RM11.png,RM1.png,RM5.png,RM7.png,RM13.png,RM2.png,426090
21520,20:34:06,8660,881866896,choice,choice4,0,1,1,18,11725,11821.5,212787,C5.png,sand_t.png,SW6.png,SW9.png,SW3.png,SW7.png,SW1.png,SW10.png,438406
21520,20:34:06,8660,881866896,switch,choice4,0,0,1,18,11725,11821.5,212787,SW6.png,sand_t.png,SW6.png,SW9.png,SW3.png,SW7.png,SW1.png,SW10.png,440723
21520,20:34:06,8660,881866896,choice,choice2,0,0,1,19,13272,11897.89474,226060,SW6.png,crisps_t.png,C4.png,C7.png,C3.png,C12.png,C6.png,C9.png,454581
21520,20:34:06,8660,881866896,switch,choice2,0,1,1,19,13272,11897.89474,226060,C4.png,crisps_t.png,C4.png,C7.png,C3.png,C12.png,C6.png,C9.png,458918
21520,20:34:06,8660,881866896,choice,choice1,1,1,0,20,11521,11879.1,237582,C4.png,yog_t.png,Y4.png,Y8.png,Y3.png,Y2.png,Y10.png,Y11.png,471016
21520,20:34:06,8660,881866896,choice,choice1,1,1,0,21,6015,11599.90476,243598,C4.png,soup_t.png,S5.png,S9.png,S6.png,S10.png,S13.png,S3.png,477640
21520,20:34:06,8660,881866896,choice,choice4,0,1,1,22,15806,11791.13636,259405,C4.png,sand_t.png,SW6.png,SW11.png,SW10.png,SW7.png,SW1.png,SW8.png,494037
21520,20:34:06,8660,881866896,switch,choice4,0,0,1,22,15806,11791.13636,259405,SW6.png,sand_t.png,SW6.png,SW11.png,SW10.png,SW7.png,SW1.png,SW8.png,495982
21520,20:34:06,8660,881866896,choice,choice1,1,0,0,23,4234,11462.6087,263640,SW6.png,ready_t.png,RM11.png,RM1.png,RM5.png,RM8.png,RM13.png,RM2.png,500786
21520,20:34:06,8660,881866896,choice,choice1,1,0,0,24,10171,11408.83333,273812,SW6.png,cereal_t.png,BC2.png,BC9.png,BC12.png,BC6.png,BC5.png,BC8.png,511548
21520,20:34:06,8660,881866896,choice,choice1,1,0,0,25,2202,11040.6,276015,SW6.png,ready_t.png,RM11.png,RM1.png,RM5.png,RM3.png,RM13.png,RM2.png,514345
21520,20:34:06,8660,881866896,choice,choice1,1,0,0,26,6209,10854.80769,282225,SW6.png,cereal_t.png,BC3.png,BC11.png,BC2.png,BC9.png,BC8.png,BC1.png,521132
21520,20:34:06,8660,881866896,choice,choice1,1,0,0,27,2860,10558.74074,285086,SW6.png,yog_t.png,Y8.png,Y12.png,Y2.png,Y11.png,Y10.png,Y3.png,524572
21520,20:34:06,8660,881866896,choice,choice1,1,0,0,28,2314,10264.32143,287401,SW6.png,yog_t.png,Y8.png,Y12.png,Y2.png,Y11.png,Y10.png,Y3.png,527469
21520,20:34:06,8660,881866896,choice,choice1,1,0,0,29,1991,9979.068966,289393,SW6.png,ready_t.png,RM9.png,RM4.png,RM11.png,RM5.png,RM2.png,RM12.png,530042
21520,20:34:06,8660,881866896,choice,choice1,1,0,0,30,6184,9852.6,295578,SW6.png,sand_t.png,SW6.png,SW9.png,SW8.png,SW7.png,SW1.png,SW11.png,536798
21620,19:24:52,9961,598075997,choice,choice2,0,0,1,1,24826,24827,24827,RM11.png,crisps_t.png,C5.png,C10.png,C8.png,C9.png,C2.png,C6.png,115339
21620,19:24:52,9961,598075997,switch,choice2,0,1,1,1,24826,24827,24827,C5.png,crisps_t.png,C5.png,C10.png,C8.png,C9.png,C2.png,C6.png,120090
21620,19:24:52,9961,598075997,choice,choice4,0,1,1,2,28678,26753,53506,C5.png,ready_t.png,RM11.png,RM1.png,RM5.png,RM8.png,RM13.png,RM2.png,149395
21620,19:24:52,9961,598075997,switch,choice4,0,1,1,2,28678,26753,53506,RM11.png,ready_t.png,RM11.png,RM1.png,RM5.png,RM8.png,RM13.png,RM2.png,156449
21620,19:24:52,9961,598075997,choice,choice2,0,1,1,3,41358,31621.66667,94865,RM11.png,sand_t.png,SW6.png,SW11.png,SW10.png,SW7.png,SW1.png,SW8.png,198448
21620,19:24:52,9961,598075997,switch,choice2,0,0,1,3,41358,31621.66667,94865,SW6.png,sand_t.png,SW6.png,SW11.png,SW10.png,SW7.png,SW1.png,SW8.png,203874
21620,19:24:52,9961,598075997,choice,choice1,1,0,0,4,29386,31063,124252,SW6.png,cereal_t.png,BC3.png,BC11.png,BC2.png,BC9.png,BC8.png,BC1.png,233898
21620,19:24:52,9961,598075997,choice,choice1,1,0,0,5,9587,26768,133840,SW6.png,cereal_t.png,BC3.png,BC1.png,BC2.png,BC5.png,BC8.png,BC9.png,244113
21620,19:24:52,9961,598075997,choice,choice1,1,0,0,6,25175,26502.66667,159016,SW6.png,crisps_t.png,C5.png,C7.png,C3.png,C2.png,C11.png,C12.png,269912
21620,19:24:52,9961,598075997,choice,choice2,0,0,1,7,12131,24449.71429,171148,SW6.png,yog_t.png,Y1.png,Y8.png,Y3.png,Y12.png,Y10.png,Y2.png,282658
21620,19:24:52,9961,598075997,switch,choice2,0,0,1,7,12131,24449.71429,171148,Y1.png,yog_t.png,Y1.png,Y8.png,Y3.png,Y12.png,Y10.png,Y2.png,290452
21620,19:24:52,9961,598075997,choice,choice3,0,0,1,8,63473,29327.75,234622,Y1.png,crisps_t.png,C4.png,C7.png,C3.png,C12.png,C6.png,C9.png,354549
21620,19:24:52,9961,598075997,switch,choice3,0,1,1,8,63473,29327.75,234622,C4.png,crisps_t.png,C4.png,C7.png,C3.png,C12.png,C6.png,C9.png,365861
21620,19:24:52,9961,598075997,choice,choice1,1,1,0,9,37760,30264.77778,272383,C4.png,crisps_t.png,C10.png,C4.png,C3.png,C6.png,C2.png,C7.png,404248
21620,19:24:52,9961,598075997,choice,choice1,1,1,0,10,16865,28924.9,289249,C4.png,sand_t.png,SW4.png,SW9.png,SW6.png,SW7.png,SW3.png,SW5.png,421735
21620,19:24:52,9961,598075997,choice,choice1,1,1,0,11,11036,27298.72727,300286,C4.png,ready_t.png,RM9.png,RM4.png,RM12.png,RM5.png,RM13.png,RM8.png,433416
21620,19:24:52,9961,598075997,choice,choice1,1,1,0,12,9252,25794.91667,309539,C4.png,cereal_t.png,BC2.png,BC1.png,BC12.png,BC4.png,BC8.png,BC5.png,443288
21620,19:24:52,9961,598075997,choice,choice1,1,1,0,13,16674,25093.38462,326214,C4.png,ready_t.png,RM11.png,RM1.png,RM5.png,RM3.png,RM13.png,RM2.png,460596
21620,19:24:52,9961,598075997,choice,choice1,1,1,0,14,9529,23981.71429,335744,C4.png,soup_t.png,S5.png,S9.png,S6.png,S10.png,S13.png,S3.png,470743
21620,19:24:52,9961,598075997,choice,choice1,1,1,0,15,7480,22881.66667,343225,C4.png,yog_t.png,Y6.png,Y13.png,Y12.png,Y10.png,Y2.png,Y3.png,478866
21620,19:24:52,9961,598075997,breaktime,choice1,1,1,0,15,7480,22881.66667,343225,C4.png,yog_t.png,Y6.png,Y13.png,Y12.png,Y10.png,Y2.png,Y3.png,481069
21620,19:24:52,9961,598075997,choice,choice4,0,1,1,16,10416,22102.625,353642,C4.png,ready_t.png,RM11.png,RM1.png,RM5.png,RM7.png,RM13.png,RM2.png,492107
21620,19:24:52,9961,598075997,switch,choice4,0,1,1,16,10416,22102.625,353642,RM11.png,ready_t.png,RM11.png,RM1.png,RM5.png,RM7.png,RM13.png,RM2.png,496597
21620,19:24:52,9961,598075997,choice,choice1,1,1,0,17,22871,22147.88235,376514,RM11.png,soup_t.png,S9.png,S12.png,S6.png,S1.png,S4.png,S3.png,520083
21620,19:24:52,9961,598075997,choice,choice1,1,1,0,18,6894,21300.5,383409,RM11.png,yog_t.png,Y8.png,Y12.png,Y2.png,Y11.png,Y10.png,Y3.png,527602
21620,19:24:52,9961,598075997,choice,choice3,0,1,1,19,7273,20562.26316,390683,RM11.png,cereal_t.png,BC2.png,BC9.png,BC12.png,BC6.png,BC5.png,BC8.png,535500
21620,19:24:52,9961,598075997,switch,choice3,0,1,1,19,7273,20562.26316,390683,BC2.png,cereal_t.png,BC2.png,BC9.png,BC12.png,BC6.png,BC5.png,BC8.png,539901
21620,19:24:52,9961,598075997,choice,choice1,1,1,0,20,30772,21072.8,421456,BC2.png,soup_t.png,S5.png,S12.png,S9.png,S3.png,S6.png,S13.png,571288
21620,19:24:52,9961,598075997,choice,choice2,0,1,1,21,16433,20851.90476,437890,BC2.png,yog_t.png,Y4.png,Y8.png,Y3.png,Y2.png,Y10.png,Y11.png,588338
21620,19:24:52,9961,598075997,switch,choice2,0,1,1,21,16433,20851.90476,437890,Y4.png,yog_t.png,Y4.png,Y8.png,Y3.png,Y2.png,Y10.png,Y11.png,592163
21620,19:24:52,9961,598075997,choice,choice2,0,1,1,22,16310,20645.5,454201,Y4.png,sand_t.png,SW6.png,SW9.png,SW8.png,SW7.png,SW1.png,SW11.png,609105
21620,19:24:52,9961,598075997,switch,choice2,0,1,1,22,16310,20645.5,454201,SW6.png,sand_t.png,SW6.png,SW9.png,SW8.png,SW7.png,SW1.png,SW11.png,611669
21620,19:24:52,9961,598075997,choice,choice1,1,1,0,23,8963,20137.6087,463165,SW6.png,cereal_t.png,BC3.png,BC11.png,BC2.png,BC12.png,BC8.png,BC1.png,621254
21620,19:24:52,9961,598075997,choice,choice1,1,1,0,24,7999,19631.875,471165,SW6.png,ready_t.png,RM9.png,RM4.png,RM11.png,RM5.png,RM2.png,RM12.png,629893
21620,19:24:52,9961,598075997,choice,choice4,0,1,1,25,17657,19552.92,488823,SW6.png,sand_t.png,SW6.png,SW9.png,SW3.png,SW7.png,SW1.png,SW10.png,648189
21620,19:24:52,9961,598075997,switch,choice4,0,0,1,25,17657,19552.92,488823,SW6.png,sand_t.png,SW6.png,SW9.png,SW3.png,SW7.png,SW1.png,SW10.png,650662
21620,19:24:52,9961,598075997,choice,choice1,1,0,0,26,8185,19115.73077,497009,SW6.png,crisps_t.png,C10.png,C4.png,C3.png,C2.png,C9.png,C6.png,659483
21620,19:24:52,9961,598075997,choice,choice3,0,0,1,27,17201,19044.85185,514211,SW6.png,sand_t.png,SW4.png,SW9.png,SW6.png,SW7.png,SW8.png,SW11.png,677301
21620,19:24:52,9961,598075997,switch,choice3,0,1,1,27,17201,19044.85185,514211,SW4.png,sand_t.png,SW4.png,SW9.png,SW6.png,SW7.png,SW8.png,SW11.png,682451
21620,19:24:52,9961,598075997,choice,choice1,1,1,0,28,14160,18870.42857,528372,SW4.png,soup_t.png,S5.png,S12.png,S9.png,S13.png,S3.png,S7.png,697235
21620,19:24:52,9961,598075997,choice,choice1,1,1,0,29,7244,18469.55172,535617,SW4.png,crisps_t.png,C5.png,C7.png,C3.png,C2.png,C11.png,C12.png,705093
21620,19:24:52,9961,598075997,choice,choice1,1,1,0,30,5499,18037.23333,541117,SW4.png,soup_t.png,S5.png,S9.png,S6.png,S10.png,S13.png,S3.png,711219
21720,13:32:53,8839,78255533,choice,choice1,1,0,0,1,4653,4654,4654,RM11.png,yog_t.png,Y4.png,Y8.png,Y3.png,Y2.png,Y10.png,Y11.png,65630
21720,13:32:53,8839,78255533,choice,choice1,1,0,0,2,9971,7313,14626,RM11.png,cereal_t.png,BC2.png,BC1.png,BC12.png,BC4.png,BC8.png,BC5.png,76222
21720,13:32:53,8839,78255533,choice,choice1,1,0,0,3,14855,9827.333333,29482,RM11.png,soup_t.png,S5.png,S12.png,S9.png,S13.png,S3.png,S7.png,91685
21720,13:32:53,8839,78255533,choice,choice1,1,0,0,4,9221,9676,38704,RM11.png,cereal_t.png,BC2.png,BC9.png,BC12.png,BC6.png,BC5.png,BC8.png,101536
21720,13:32:53,8839,78255533,choice,choice1,1,0,0,5,18366,11414.2,57071,RM11.png,yog_t.png,Y6.png,Y13.png,Y12.png,Y10.png,Y2.png,Y3.png,120514
21720,13:32:53,8839,78255533,choice,choice1,1,0,0,6,6679,10625.16667,63751,RM11.png,crisps_t.png,C5.png,C7.png,C3.png,C2.png,C11.png,C12.png,127812
21720,13:32:53,8839,78255533,choice,choice1,1,0,0,7,15497,11321.28571,79249,RM11.png,sand_t.png,SW4.png,SW9.png,SW6.png,SW7.png,SW3.png,SW5.png,143929
21720,13:32:53,8839,78255533,choice,choice4,0,0,1,8,9857,11138.375,89107,RM11.png,ready_t.png,RM11.png,RM1.png,RM5.png,RM7.png,RM13.png,RM2.png,154407
21720,13:32:53,8839,78255533,switch,choice4,0,1,1,8,9857,11138.375,89107,RM11.png,ready_t.png,RM11.png,RM1.png,RM5.png,RM7.png,RM13.png,RM2.png,161841
21720,13:32:53,8839,78255533,choice,choice2,0,1,1,9,9289,10933,98397,RM11.png,sand_t.png,SW6.png,SW11.png,SW10.png,SW7.png,SW1.png,SW8.png,171759
21720,13:32:53,8839,78255533,switch,choice2,0,1,1,9,9289,10933,98397,SW6.png,sand_t.png,SW6.png,SW11.png,SW10.png,SW7.png,SW1.png,SW8.png,174050
21720,13:32:53,8839,78255533,choice,choice2,0,1,1,10,7163,10556.1,105561,SW6.png,soup_t.png,S9.png,S12.png,S13.png,S7.png,S3.png,S4.png,181832
21720,13:32:53,8839,78255533,switch,choice2,0,1,1,10,7163,10556.1,105561,S9.png,soup_t.png,S9.png,S12.png,S13.png,S7.png,S3.png,S4.png,183165
21720,13:32:53,8839,78255533,choice,choice1,1,1,0,11,1937,9772.636364,107499,S9.png,cereal_t.png,BC3.png,BC11.png,BC2.png,BC9.png,BC8.png,BC1.png,185740
21720,13:32:53,8839,78255533,choice,choice3,0,1,1,12,9397,9741.416667,116897,S9.png,soup_t.png,S5.png,S12.png,S9.png,S3.png,S6.png,S13.png,195750
21720,13:32:53,8839,78255533,switch,choice3,0,1,1,12,9397,9741.416667,116897,S5.png,soup_t.png,S5.png,S12.png,S9.png,S3.png,S6.png,S13.png,197766
21720,13:32:53,8839,78255533,choice,choice1,1,1,0,13,4302,9323.076923,121200,S5.png,cereal_t.png,BC3.png,BC1.png,BC2.png,BC5.png,BC8.png,BC9.png,202688
21720,13:32:53,8839,78255533,choice,choice1,1,1,0,14,5493,9049.571429,126694,S5.png,ready_t.png,RM11.png,RM1.png,RM5.png,RM3.png,RM13.png,RM2.png,208798
21720,13:32:53,8839,78255533,choice,choice6,0,1,1,15,6106,8853.4,132801,S5.png,sand_t.png,SW4.png,SW9.png,SW6.png,SW7.png,SW8.png,SW11.png,215528
21720,13:32:53,8839,78255533,switch,choice6,0,1,1,15,6106,8853.4,132801,SW4.png,sand_t.png,SW4.png,SW9.png,SW6.png,SW7.png,SW8.png,SW11.png,217062
