date,time,subject,group,trialcode,trial.choice.response,trial.choice.correct,values.switch,values.subopt,values.trial_num,trial.choice.latency,expressions.mean_rt,values.rt,picture.switch.currentitem,picture.foodtype.currentitem,picture.choice1.currentitem,picture.choice2.currentitem,picture.choice3.currentitem,picture.choice4.currentitem,picture.choice5.currentitem,picture.choice6.currentitem,script.elapsedtime
21020,16:38:12,9733,857447381,choice,choice2,0,0,1,1,15798,15799,15799,RM5.png,yog_t.png,Y1.png,Y8.png,Y3.png,Y12.png,Y10.png,Y2.png,126653
21020,16:38:12,9733,857447381,switch,choice2,0,1,1,1,15798,15799,15799,Y1.png,yog_t.png,Y1.png,Y8.png,Y3.png,Y12.png,Y10.png,Y2.png,134460
21020,16:38:12,9733,857447381,choice,choice1,1,1,0,2,11784,13792,27584,Y1.png,sand_t.png,SW6.png,SW9.png,SW8.png,SW7.png,SW1.png,SW11.png,146819
21020,16:38:12,9733,857447381,choice,choice3,0,1,1,3,12609,13398,40194,Y1.png,soup_t.png,S12.png,S5.png,S9.png,S3.png,S6.png,S13.png,160009
21020,16:38:12,9733,857447381,switch,choice3,0,1,1,3,12609,13398,40194,S12.png,soup_t.png,S12.png,S5.png,S9.png,S3.png,S6.png,S13.png,163186
21020,16:38:12,9733,857447381,choice,choice1,1,1,0,4,6288,11620.75,46483,S12.png,crisps_t.png,C10.png,C4.png,C3.png,C2.png,C9.png,C6.png,170053
21020,16:38:12,9733,857447381,choice,choice2,0,1,1,5,6600,10616.8,53084,S12.png,soup_t.png,S5.png,S9.png,S6.png,S10.png,S13.png,S3.png,177230
21020,16:38:12,9733,857447381,switch,choice2,0,1,1,5,6600,10616.8,53084,S5.png,soup_t.png,S5.png,S9.png,S6.png,S10.png,S13.png,S3.png,180943
21020,16:38:12,9733,857447381,choice,choice1,1,1,0,6,7773,10143,60858,S5.png,cereal_t.png,BC2.png,BC9.png,BC12.png,BC6.png,BC5.png,BC8.png,189286
21020,16:38:12,9733,857447381,choice,choice1,1,1,0,7,2353,9030.285714,63212,S5.png,cereal_t.png,BC2.png,BC11.png,BC3.png,BC9.png,BC8.png,BC1.png,192214
21020,16:38:12,9733,857447381,choice,choice1,1,1,0,8,3801,8376.75,67014,S5.png,soup_t.png,S12.png,S6.png,S9.png,S1.png,S4.png,S3.png,196595
21020,16:38:12,9733,857447381,choice,choice1,1,1,0,9,11776,8754.555556,78791,S5.png,cereal_t.png,BC2.png,BC11.png,BC3.png,BC12.png,BC8.png,BC1.png,208954
21020,16:38:12,9733,857447381,choice,choice1,1,1,0,10,4267,8305.9,83059,S5.png,crisps_t.png,C10.png,C8.png,C5.png,C9.png,C2.png,C6.png,213793
21020,16:38:12,9733,857447381,choice,choice4,0,1,1,11,7139,8199.909091,90199,S5.png,ready_t.png,RM5.png,RM4.png,RM11.png,RM9.png,RM2.png,RM12.png,221513
21020,16:38:12,9733,857447381,switch,choice4,0,1,1,11,7139,8199.909091,90199,RM5.png,ready_t.png,RM5.png,RM4.png,RM11.png,RM9.png,RM2.png,RM12.png,226733
21020,16:38:12,9733,857447381,choice,choice1,1,1,0,12,11637,8486.416667,101837,RM5.png,yog_t.png,Y4.png,Y8.png,Y3.png,Y2.png,Y10.png,Y11.png,238943
21020,16:38:12,9733,857447381,choice,choice2,0,1,1,13,3779,8124.384615,105617,RM5.png,ready_t.png,RM5.png,RM11.png,RM1.png,RM8.png,RM13.png,RM2.png,243300
21020,16:38:12,9733,857447381,switch,choice2,0,1,1,13,3779,8124.384615,105617,RM5.png,ready_t.png,RM5.png,RM11.png,RM1.png,RM8.png,RM13.png,RM2.png,244885
21020,16:38:12,9733,857447381,choice,choice4,0,1,1,14,2662,7734.285714,108280,RM5.png,ready_t.png,RM5.png,RM4.png,RM12.png,RM9.png,RM13.png,RM8.png,248116
21020,16:38:12,9733,857447381,switch,choice4,0,0,1,14,2662,7734.285714,108280,RM5.png,ready_t.png,RM5.png,RM4.png,RM12.png,RM9.png,RM13.png,RM8.png,249794
21020,16:38:12,9733,857447381,choice,choice2,0,0,1,15,8410,7779.4,116691,RM5.png,ready_t.png,RM5.png,RM11.png,RM1.png,RM7.png,RM13.png,RM2.png,258781
21020,16:38:12,9733,857447381,switch,choice2,0,1,1,15,8410,7779.4,116691,RM5.png,ready_t.png,RM5.png,RM11.png,RM1.png,RM7.png,RM13.png,RM2.png,261693
21020,16:38:12,9733,857447381,breaktime,choice2,0,1,1,15,8410,7779.4,116691,RM5.png,ready_t.png,RM5.png,RM11.png,RM1.png,RM7.png,RM13.png,RM2.png,264690
21020,16:38:12,9733,857447381,choice,choice1,1,1,0,16,6467,7697.4375,123159,RM5.png,cereal_t.png,BC2.png,BC1.png,BC12.png,BC4.png,BC8.png,BC5.png,271736
21020,16:38:12,9733,857447381,choice,choice1,1,1,0,17,4545,7512.058824,127705,RM5.png,crisps_t.png,C5.png,C7.png,C3.png,C2.png,C11.png,C12.png,276862
21020,16:38:12,9733,857447381,choice,choice2,0,1,1,18,7522,7512.666667,135228,RM5.png,yog_t.png,Y12.png,Y8.png,Y2.png,Y11.png,Y10.png,Y3.png,284955
21020,16:38:12,9733,857447381,switch,choice2,0,1,1,18,7522,7512.666667,135228,Y12.png,yog_t.png,Y12.png,Y8.png,Y2.png,Y11.png,Y10.png,Y3.png,286501
21020,16:38:12,9733,857447381,choice,choice1,1,1,0,19,5422,7402.684211,140651,Y12.png,crisps_t.png,C7.png,C4.png,C3.png,C12.png,C6.png,C9.png,292504
21020,16:38:12,9733,857447381,choice,choice2,0,1,1,20,5737,7319.45,146389,Y12.png,sand_t.png,SW6.png,SW11.png,SW10.png,SW7.png,SW1.png,SW8.png,298819
21020,16:38:12,9733,857447381,switch,choice2,0,1,1,20,5737,7319.45,146389,SW6.png,sand_t.png,SW6.png,SW11.png,SW10.png,SW7.png,SW1.png,SW8.png,300364
21020,16:38:12,9733,857447381,choice,choice2,0,1,1,21,4947,7206.52381,151337,SW6.png,ready_t.png,RM5.png,RM11.png,RM1.png,RM3.png,RM13.png,RM2.png,305894
21020,16:38:12,9733,857447381,switch,choice2,0,1,1,21,4947,7206.52381,151337,RM5.png,ready_t.png,RM5.png,RM11.png,RM1.png,RM3.png,RM13.png,RM2.png,307331
21020,16:38:12,9733,857447381,choice,choice1,1,1,0,22,17413,7670.5,168751,RM5.png,crisps_t.png,C10.png,C4.png,C3.png,C6.png,C2.png,C7.png,325326
21020,16:38:12,9733,857447381,choice,choice3,0,1,1,23,6507,7619.956522,175259,RM5.png,soup_t.png,S12.png,S5.png,S9.png,S13.png,S3.png,S7.png,332401
21020,16:38:12,9733,857447381,switch,choice3,0,1,1,23,6507,7619.956522,175259,S12.png,soup_t.png,S12.png,S5.png,S9.png,S13.png,S3.png,S7.png,333798
21020,16:38:12,9733,857447381,choice,choice1,1,1,0,24,4160,7475.833333,179420,S12.png,sand_t.png,SW6.png,SW9.png,SW3.png,SW7.png,SW1.png,SW10.png,338536
21020,16:38:12,9733,857447381,choice,choice1,1,1,0,25,7426,7473.88,186847,S12.png,yog_t.png,Y1.png,Y9.png,Y10.png,Y12.png,Y2.png,Y3.png,346535
21020,16:38:12,9733,857447381,choice,choice1,1,1,0,26,6448,7434.461538,193296,S12.png,sand_t.png,SW6.png,SW9.png,SW4.png,SW7.png,SW8.png,SW11.png,353556
21020,16:38:12,9733,857447381,choice,choice1,1,1,0,27,3463,7287.407407,196760,S12.png,soup_t.png,S12.png,S13.png,S9.png,S7.png,S3.png,S4.png,357586
21020,16:38:12,9733,857447381,choice,choice1,1,1,0,28,3181,7140.785714,199942,S12.png,yog_t.png,Y1.png,Y9.png,Y10.png,Y12.png,Y2.png,Y3.png,361337
21020,16:38:12,9733,857447381,choice,choice1,1,1,0,29,4968,7065.896552,204911,S12.png,crisps_t.png,C10.png,C4.png,C3.png,C6.png,C2.png,C7.png,366874
21020,16:38:12,9733,857447381,choice,choice2,0,1,1,30,6121,7034.433333,211033,S12.png,ready_t.png,RM5.png,RM11.png,RM1.png,RM8.png,RM13.png,RM2.png,373576
21020,16:38:12,9733,857447381,switch,choice2,0,1,1,30,6121,7034.433333,211033,RM5.png,ready_t.png,RM5.png,RM11.png,RM1.png,RM8.png,RM13.png,RM2.png,376535
21120,13:16:27,9926,578777188,choice,choice1,1,0,0,1,24766,24767,24767,RM5.png,sand_t.png,SW6.png,SW9.png,SW3.png,SW7.png,SW1.png,SW10.png,72972
21120,13:16:27,9926,578777188,choice,choice2,0,0,1,2,9821,17294.5,34589,RM5.png,yog_t.png,Y4.png,Y8.png,Y3.png,Y2.png,Y10.png,Y11.png,83359
21120,13:16:27,9926,578777188,switch,choice2,0,0,1,2,9821,17294.5,34589,Y4.png,yog_t.png,Y4.png,Y8.png,Y3.png,Y2.png,Y10.png,Y11.png,89798
21120,13:16:27,9926,578777188,choice,choice3,0,0,1,3,23898,19496,58488,Y4.png,soup_t.png,S12.png,S6.png,S9.png,S1.png,S4.png,S3.png,114257
21120,13:16:27,9926,578777188,switch,choice3,0,0,1,3,23898,19496,58488,S12.png,soup_t.png,S12.png,S6.png,S9.png,S1.png,S4.png,S3.png,121518
21120,13:16:27,9926,578777188,choice,choice3,0,0,1,4,4940,15857.25,63429,S12.png,cereal_t.png,BC2.png,BC11.png,BC3.png,BC12.png,BC8.png,BC1.png,127027
21120,13:16:27,9926,578777188,switch,choice3,0,1,1,4,4940,15857.25,63429,BC2.png,cereal_t.png,BC2.png,BC11.png,BC3.png,BC12.png,BC8.png,BC1.png,128071
21120,13:16:27,9926,578777188,choice,choice4,0,1,1,5,7608,14207.6,71038,BC2.png,ready_t.png,RM5.png,RM11.png,RM1.png,RM8.png,RM13.png,RM2.png,136240
21120,13:16:27,9926,578777188,switch,choice4,0,1,1,5,7608,14207.6,71038,RM5.png,ready_t.png,RM5.png,RM11.png,RM1.png,RM8.png,RM13.png,RM2.png,138208
21120,13:16:27,9926,578777188,choice,choice1,1,1,0,6,537,11929.33333,71576,RM5.png,soup_t.png,S12.png,S13.png,S9.png,S7.png,S3.png,S4.png,139312
21120,13:16:27,9926,578777188,choice,choice2,0,1,1,7,17441,12716.85714,89018,RM5.png,soup_t.png,S5.png,S9.png,S6.png,S10.png,S13.png,S3.png,167358
21120,13:16:27,9926,578777188,switch,choice2,0,0,1,7,17441,12716.85714,89018,S5.png,soup_t.png,S5.png,S9.png,S6.png,S10.png,S13.png,S3.png,170291
21120,13:16:27,9926,578777188,choice,choice2,0,0,1,8,15058,13009.625,104077,S5.png,crisps_t.png,C7.png,C4.png,C3.png,C12.png,C6.png,C9.png,185909
21120,13:16:27,9926,578777188,switch,choice2,0,0,1,8,15058,13009.625,104077,C7.png,crisps_t.png,C7.png,C4.png,C3.png,C12.png,C6.png,C9.png,187728
21120,13:16:27,9926,578777188,choice,choice5,0,0,1,9,1066,11682.66667,105144,C7.png,cereal_t.png,BC2.png,BC1.png,BC12.png,BC4.png,BC8.png,BC5.png,189355
21120,13:16:27,9926,578777188,switch,choice5,0,1,1,9,1066,11682.66667,105144,BC2.png,cereal_t.png,BC2.png,BC1.png,BC12.png,BC4.png,BC8.png,BC5.png,191286
21120,13:16:27,9926,578777188,choice,choice1,1,1,0,10,24819,12996.4,129964,BC2.png,sand_t.png,SW6.png,SW9.png,SW4.png,SW7.png,SW8.png,SW11.png,216672
21120,13:16:27,9926,578777188,choice,choice1,1,1,0,11,7281,12476.90909,137246,BC2.png,crisps_t.png,C5.png,C7.png,C3.png,C2.png,C11.png,C12.png,224516
21120,13:16:27,9926,578777188,choice,choice2,0,1,1,12,15674,12743.41667,152921,BC2.png,ready_t.png,RM5.png,RM11.png,RM1.png,RM7.png,RM13.png,RM2.png,240753
21120,13:16:27,9926,578777188,switch,choice2,0,1,1,12,15674,12743.41667,152921,RM5.png,ready_t.png,RM5.png,RM11.png,RM1.png,RM7.png,RM13.png,RM2.png,243063
21120,13:16:27,9926,578777188,choice,choice3,0,1,1,13,476,11799.84615,153398,RM5.png,crisps_t.png,C10.png,C8.png,C5.png,C9.png,C2.png,C6.png,244109
21120,13:16:27,9926,578777188,choice,choice2,0,1,1,14,7712,11507.92857,161111,RM5.png,yog_t.png,Y1.png,Y9.png,Y10.png,Y12.png,Y2.png,Y3.png,262420
21120,13:16:27,9926,578777188,switch,choice2,0,1,1,14,7712,11507.92857,161111,Y1.png,yog_t.png,Y1.png,Y9.png,Y10.png,Y12.png,Y2.png,Y3.png,264961
21120,13:16:27,9926,578777188,choice,choice2,0,1,1,15,18214,11955.06667,179326,Y1.png,yog_t.png,Y1.png,Y8.png,Y3.png,Y12.png,Y10.png,Y2.png,283748
21120,13:16:27,9926,578777188,switch,choice2,0,1,1,15,18214,11955.06667,179326,Y1.png,yog_t.png,Y1.png,Y8.png,Y3.png,Y12.png,Y10.png,Y2.png,290170
21120,13:16:27,9926,578777188,breaktime,choice2,0,1,1,15,18214,11955.06667,179326,Y1.png,yog_t.png,Y1.png,Y8.png,Y3.png,Y12.png,Y10.png,Y2.png,292003
21120,13:16:27,9926,578777188,choice,choice3,0,1,1,16,13689,12063.5,193016,Y1.png,soup_t.png,S12.png,S5.png,S9.png,S13.png,S3.png,S7.png,306253
21120,13:16:27,9926,578777188,switch,choice3,0,0,1,16,13689,12063.5,193016,S12.png,soup_t.png,S12.png,S5.png,S9.png,S13.png,S3.png,S7.png,309623
21120,13:16:27,9926,578777188,choice,choice2,0,0,1,17,10943,11997.64706,203960,S12.png,yog_t.png,Y13.png,Y6.png,Y12.png,Y10.png,Y2.png,Y3.png,321128
21120,13:16:27,9926,578777188,switch,choice2,0,1,1,17,10943,11997.64706,203960,Y13.png,yog_t.png,Y13.png,Y6.png,Y12.png,Y10.png,Y2.png,Y3.png,324444
21120,13:16:27,9926,578777188,choice,choice3,0,1,1,18,15348,12183.83333,219309,Y13.png,cereal_t.png,BC2.png,BC1.png,BC3.png,BC5.png,BC8.png,BC9.png,340356
21120,13:16:27,9926,578777188,switch,choice3,0,1,1,18,15348,12183.83333,219309,BC2.png,cereal_t.png,BC2.png,BC1.png,BC3.png,BC5.png,BC8.png,BC9.png,341520
21120,13:16:27,9926,578777188,choice,choice6,0,1,1,19,455,11566.57895,219765,BC2.png,soup_t.png,S12.png,S5.png,S9.png,S3.png,S6.png,S13.png,342534
21120,13:16:27,9926,578777188,choice,choice6,0,1,1,20,19718,11974.2,239484,BC2.png,sand_t.png,SW6.png,SW9.png,SW8.png,SW7.png,SW1.png,SW11.png,372855
21120,13:16:27,9926,578777188,switch,choice6,0,1,1,20,19718,11974.2,239484,SW6.png,sand_t.png,SW6.png,SW9.png,SW8.png,SW7.png,SW1.png,SW11.png,374901
21120,13:16:27,9926,578777188,choice,choice1,1,1,0,21,354,11420.90476,239839,SW6.png,crisps_t.png,C10.png,C4.png,C3.png,C6.png,C2.png,C7.png,375826
21120,13:16:27,9926,578777188,choice,choice4,0,1,1,22,3996,11083.45455,243836,SW6.png,ready_t.png,RM5.png,RM4.png,RM12.png,RM9.png,RM13.png,RM8.png,390427
21120,13:16:27,9926,578777188,switch,choice4,0,1,1,22,3996,11083.45455,243836,RM5.png,ready_t.png,RM5.png,RM4.png,RM12.png,RM9.png,RM13.png,RM8.png,396242
21120,13:16:27,9926,578777188,choice,choice1,1,1,0,23,30342,11920.82609,274179,RM5.png,crisps_t.png,C10.png,C4.png,C3.png,C2.png,C9.png,C6.png,427149
21120,13:16:27,9926,578777188,choice,choice3,0,1,1,24,7160,11722.5,281340,RM5.png,cereal_t.png,BC2.png,BC11.png,BC3.png,BC9.png,BC8.png,BC1.png,434878
21120,13:16:27,9926,578777188,switch,choice3,0,1,1,24,7160,11722.5,281340,BC2.png,cereal_t.png,BC2.png,BC11.png,BC3.png,BC9.png,BC8.png,BC1.png,437719
21120,13:16:27,9926,578777188,choice,choice2,0,1,1,25,4636,11439.08,285977,BC2.png,yog_t.png,Y12.png,Y8.png,Y2.png,Y11.png,Y10.png,Y3.png,442912
21120,13:16:27,9926,578777188,switch,choice2,0,0,1,25,4636,11439.08,285977,Y12.png,yog_t.png,Y12.png,Y8.png,Y2.png,Y11.png,Y10.png,Y3.png,444341
21120,13:16:27,9926,578777188,choice,choice3,0,0,1,26,6612,11253.46154,292590,Y12.png,cereal_t.png,BC2.png,BC9.png,BC12.png,BC6.png,BC5.png,BC8.png,451517
21120,13:16:27,9926,578777188,switch,choice3,0,0,1,26,6612,11253.46154,292590,BC2.png,cereal_t.png,BC2.png,BC9.png,BC12.png,BC6.png,BC5.png,BC8.png,453673
21120,13:16:27,9926,578777188,choice,choice1,1,0,0,27,10130,11211.88889,302721,BC2.png,sand_t.png,SW6.png,SW9.png,SW4.png,SW7.png,SW3.png,SW5.png,464362
21120,13:16:27,9926,578777188,choice,choice2,0,0,1,28,12165,11245.96429,314887,BC2.png,yog_t.png,Y4.png,Y8.png,Y3.png,Y2.png,Y10.png,Y11.png,477089
21120,13:16:27,9926,578777188,switch,choice2,0,1,1,28,12165,11245.96429,314887,Y4.png,yog_t.png,Y4.png,Y8.png,Y3.png,Y2.png,Y10.png,Y11.png,478910
21120,13:16:27,9926,578777188,choice,choice5,0,1,1,29,245,10866.65517,315133,Y4.png,crisps_t.png,C10.png,C4.png,C3.png,C6.png,C2.png,C7.png,479726
21120,13:16:27,9926,578777188,choice,choice3,0,1,1,30,7925,10768.63333,323059,Y4.png,crisps_t.png,C10.png,C8.png,C5.png,C9.png,C2.png,C6.png,498265
21120,13:16:27,9926,578777188,switch,choice3,0,0,1,30,7925,10768.63333,323059,C10.png,crisps_t.png,C10.png,C8.png,C5.png,C9.png,C2.png,C6.png,500965
21520,15:24:14,9709,426501216,choice,choice3,0,0,1,1,11655,11656,11656,RM5.png,crisps_t.png,C10.png,C8.png,C5.png,C9.png,C2.png,C6.png,162167
21520,15:24:14,9709,426501216,switch,choice3,0,1,1,1,11655,11656,11656,C10.png,crisps_t.png,C10.png,C8.png,C5.png,C9.png,C2.png,C6.png,168082
21520,15:24:14,9709,426501216,choice,choice1,1,1,0,2,14340,12998.5,25997,C10.png,crisps_t.png,C5.png,C7.png,C3.png,C2.png,C11.png,C12.png,183068
21520,15:24:14,9709,426501216,choice,choice1,1,1,0,3,17142,14380,43140,C10.png,soup_t.png,S5.png,S9.png,S6.png,S10.png,S13.png,S3.png,200825
21520,15:24:14,9709,426501216,choice,choice3,0,1,1,4,17274,15103.75,60415,C10.png,soup_t.png,S12.png,S6.png,S9.png,S1.png,S4.png,S3.png,218720
21520,15:24:14,9709,426501216,switch,choice3,0,1,1,4,17274,15103.75,60415,S12.png,soup_t.png,S12.png,S6.png,S9.png,S1.png,S4.png,S3.png,222771
21520,15:24:14,9709,426501216,choice,choice1,1,1,0,5,15014,15086,75430,S12.png,sand_t.png,SW6.png,SW9.png,SW4.png,SW7.png,SW8.png,SW11.png,238421
21520,15:24:14,9709,426501216,choice,choice3,0,1,1,6,11760,14531.83333,87191,S12.png,cereal_t.png,BC2.png,BC9.png,BC12.png,BC6.png,BC5.png,BC8.png,250807
21520,15:24:14,9709,426501216,switch,choice3,0,1,1,6,11760,14531.83333,87191,BC2.png,cereal_t.png,BC2.png,BC9.png,BC12.png,BC6.png,BC5.png,BC8.png,252600
21520,15:24:14,9709,426501216,choice,choice2,0,1,1,7,17812,15000.57143,105004,BC2.png,ready_t.png,RM5.png,RM11.png,RM1.png,RM3.png,RM13.png,RM2.png,271047
21520,15:24:14,9709,426501216,switch,choice2,0,1,1,7,17812,15000.57143,105004,RM5.png,ready_t.png,RM5.png,RM11.png,RM1.png,RM3.png,RM13.png,RM2.png,272720
21520,15:24:14,9709,426501216,choice,choice3,0,1,1,8,18307,15414,123312,RM5.png,cereal_t.png,BC2.png,BC11.png,BC3.png,BC12.png,BC8.png,BC1.png,291646
21520,15:24:14,9709,426501216,switch,choice3,0,1,1,8,18307,15414,123312,BC2.png,cereal_t.png,BC2.png,BC11.png,BC3.png,BC12.png,BC8.png,BC1.png,293417
21520,15:24:14,9709,426501216,choice,choice1,1,1,0,9,7649,14551.33333,130962,BC2.png,sand_t.png,SW6.png,SW11.png,SW10.png,SW7.png,SW1.png,SW8.png,301676
21520,15:24:14,9709,426501216,choice,choice1,1,1,0,10,21240,15220.3,152203,BC2.png,crisps_t.png,C10.png,C4.png,C3.png,C2.png,C9.png,C6.png,323539
21520,15:24:14,9709,426501216,choice,choice2,0,1,1,11,19816,15638.18182,172020,BC2.png,crisps_t.png,C7.png,C4.png,C3.png,C12.png,C6.png,C9.png,343973
21520,15:24:14,9709,426501216,switch,choice2,0,1,1,11,19816,15638.18182,172020,C7.png,crisps_t.png,C7.png,C4.png,C3.png,C12.png,C6.png,C9.png,345390
21520,15:24:14,9709,426501216,choice,choice2,0,1,1,12,13776,15483.08333,185797,C7.png,yog_t.png,Y1.png,Y8.png,Y3.png,Y12.png,Y10.png,Y2.png,359797
21520,15:24:14,9709,426501216,switch,choice2,0,1,1,12,13776,15483.08333,185797,Y1.png,yog_t.png,Y1.png,Y8.png,Y3.png,Y12.png,Y10.png,Y2.png,361366
21520,15:24:14,9709,426501216,choice,choice4,0,1,1,13,6305,14777.15385,192103,Y1.png,ready_t.png,RM5.png,RM11.png,RM1.png,RM8.png,RM13.png,RM2.png,368297
21520,15:24:14,9709,426501216,switch,choice4,0,1,1,13,6305,14777.15385,192103,RM5.png,ready_t.png,RM5.png,RM11.png,RM1.png,RM8.png,RM13.png,RM2.png,370343
21520,15:24:14,9709,426501216,choice,choice3,0,1,1,14,7349,14246.64286,199453,RM5.png,cereal_t.png,BC2.png,BC11.png,BC3.png,BC9.png,BC8.png,BC1.png,378332
21520,15:24:14,9709,426501216,switch,choice3,0,1,1,14,7349,14246.64286,199453,BC2.png,cereal_t.png,BC2.png,BC11.png,BC3.png,BC9.png,BC8.png,BC1.png,381507
21520,15:24:14,9709,426501216,choice,choice1,1,1,0,15,4277,13582.06667,203731,BC2.png,sand_t.png,SW6.png,SW9.png,SW3.png,SW7.png,SW1.png,SW10.png,386423
21520,15:24:14,9709,426501216,breaktime,choice1,1,1,0,15,4277,13582.06667,203731,BC2.png,sand_t.png,SW6.png,SW9.png,SW3.png,SW7.png,SW1.png,SW10.png,390363
21520,15:24:14,9709,426501216,choice,choice4,0,1,1,16,8343,13254.6875,212075,BC2.png,ready_t.png,RM5.png,RM11.png,RM1.png,RM7.png,RM13.png,RM2.png,399329
21520,15:24:14,9709,426501216,switch,choice4,0,1,1,16,8343,13254.6875,212075,RM5.png,ready_t.png,RM5.png,RM11.png,RM1.png,RM7.png,RM13.png,RM2.png,400754
21520,15:24:14,9709,426501216,choice,choice2,0,1,1,17,5873,12820.52941,217949,RM5.png,yog_t.png,Y12.png,Y8.png,Y2.png,Y11.png,Y10.png,Y3.png,407272
21520,15:24:14,9709,426501216,switch,choice2,0,1,1,17,5873,12820.52941,217949,Y12.png,yog_t.png,Y12.png,Y8.png,Y2.png,Y11.png,Y10.png,Y3.png,408625
21520,15:24:14,9709,426501216,choice,choice2,0,1,1,18,5699,12424.94444,223649,Y12.png,yog_t.png,Y13.png,Y6.png,Y12.png,Y10.png,Y2.png,Y3.png,414934
21520,15:24:14,9709,426501216,switch,choice2,0,1,1,18,5699,12424.94444,223649,Y13.png,yog_t.png,Y13.png,Y6.png,Y12.png,Y10.png,Y2.png,Y3.png,416268
21520,15:24:14,9709,426501216,choice,choice3,0,1,1,19,7243,12152.26316,230893,Y13.png,soup_t.png,S12.png,S5.png,S9.png,S13.png,S3.png,S7.png,424133
21520,15:24:14,9709,426501216,switch,choice3,0,1,1,19,7243,12152.26316,230893,S12.png,soup_t.png,S12.png,S5.png,S9.png,S13.png,S3.png,S7.png,426241
21520,15:24:14,9709,426501216,choice,choice4,0,1,1,20,4094,11749.4,234988,S12.png,ready_t.png,RM5.png,RM4.png,RM12.png,RM9.png,RM13.png,RM8.png,430959
21520,15:24:14,9709,426501216,switch,choice4,0,0,1,20,4094,11749.4,234988,RM5.png,ready_t.png,RM5.png,RM4.png,RM12.png,RM9.png,RM13.png,RM8.png,435062
21520,15:24:14,9709,426501216,choice,choice1,1,0,0,21,8100,11575.66667,243089,RM5.png,sand_t.png,SW6.png,SW9.png,SW8.png,SW7.png,SW1.png,SW11.png,443788
21520,15:24:14,9709,426501216,choice,choice1,1,0,0,22,5977,11321.22727,249067,RM5.png,sand_t.png,SW6.png,SW9.png,SW4.png,SW7.png,SW3.png,SW5.png,450389
21520,15:24:14,9709,426501216,choice,choice3,0,0,1,23,4754,11035.73913,253822,RM5.png,cereal_t.png,BC2.png,BC1.png,BC3.png,BC5.png,BC8.png,BC9.png,455767
21520,15:24:14,9709,426501216,switch,choice3,0,1,1,23,4754,11035.73913,253822,BC2.png,cereal_t.png,BC2.png,BC1.png,BC3.png,BC5.png,BC8.png,BC9.png,457241
21520,15:24:14,9709,426501216,choice,choice1,1,1,0,24,6613,10851.5,260436,BC2.png,cereal_t.png,BC2.png,BC1.png,BC12.png,BC4.png,BC8.png,BC5.png,464478
21520,15:24:14,9709,426501216,choice,choice3,0,1,1,25,8355,10751.68,268792,BC2.png,soup_t.png,S12.png,S5.png,S9.png,S3.png,S6.png,S13.png,473472
21520,15:24:14,9709,426501216,switch,choice3,0,1,1,25,8355,10751.68,268792,S12.png,soup_t.png,S12.png,S5.png,S9.png,S3.png,S6.png,S13.png,474919
21520,15:24:14,9709,426501216,choice,choice4,0,1,1,26,2301,10426.69231,271094,S12.png,ready_t.png,RM5.png,RM4.png,RM11.png,RM9.png,RM2.png,RM12.png,477846
21520,15:24:14,9709,426501216,switch,choice4,0,1,1,26,2301,10426.69231,271094,RM5.png,ready_t.png,RM5.png,RM4.png,RM11.png,RM9.png,RM2.png,RM12.png,479021
21520,15:24:14,9709,426501216,choice,choice2,0,1,1,27,8191,10343.92593,279286,RM5.png,yog_t.png,Y1.png,Y9.png,Y10.png,Y12.png,Y2.png,Y3.png,487830
21520,15:24:14,9709,426501216,switch,choice2,0,1,1,27,8191,10343.92593,279286,Y1.png,yog_t.png,Y1.png,Y9.png,Y10.png,Y12.png,Y2.png,Y3.png,489419
21520,15:24:14,9709,426501216,choice,choice2,0,1,1,28,6441,10204.57143,285728,Y1.png,yog_t.png,Y1.png,Y8.png,Y3.png,Y12.png,Y10.png,Y2.png,496477
21520,15:24:14,9709,426501216,switch,choice2,0,1,1,28,6441,10204.57143,285728,Y1.png,yog_t.png,Y1.png,Y8.png,Y3.png,Y12.png,Y10.png,Y2.png,497930
21520,15:24:14,9709,426501216,choice,choice2,0,1,1,29,5455,10040.82759,291184,Y1.png,yog_t.png,Y13.png,Y6.png,Y12.png,Y10.png,Y2.png,Y3.png,504013
21520,15:24:14,9709,426501216,switch,choice2,0,1,1,29,5455,10040.82759,291184,Y13.png,yog_t.png,Y13.png,Y6.png,Y12.png,Y10.png,Y2.png,Y3.png,505275
21520,15:24:14,9709,426501216,choice,choice4,0,1,1,30,8122,9976.9,299307,Y13.png,ready_t.png,RM5.png,RM11.png,RM1.png,RM8.png,RM13.png,RM2.png,514014
21520,15:24:14,9709,426501216,switch,choice4,0,0,1,30,8122,9976.9,299307,RM5.png,ready_t.png,RM5.png,RM11.png,RM1.png,RM8.png,RM13.png,RM2.png,515623
30320,15:34:04,8772,136977960,choice,choice2,0,0,1,1,74666,74667,74667,RM5.png,ready_t.png,RM5.png,RM11.png,RM1.png,RM7.png,RM13.png,RM2.png,177599
30320,15:34:04,8772,136977960,switch,choice2,0,0,1,1,74666,74667,74667,RM5.png,ready_t.png,RM5.png,RM11.png,RM1.png,RM7.png,RM13.png,RM2.png,193830
30320,15:34:04,8772,136977960,choice,choice1,1,0,0,2,45689,60178.5,120357,RM5.png,yog_t.png,Y1.png,Y8.png,Y3.png,Y12.png,Y10.png,Y2.png,240138
30320,15:34:04,8772,136977960,choice,choice2,0,0,1,3,31139,50499,151497,RM5.png,yog_t.png,Y1.png,Y9.png,Y10.png,Y12.png,Y2.png,Y3.png,271912
30320,15:34:04,8772,136977960,switch,choice2,0,1,1,3,31139,50499,151497,Y1.png,yog_t.png,Y1.png,Y9.png,Y10.png,Y12.png,Y2.png,Y3.png,275114
30320,15:34:04,8772,136977960,choice,choice1,1,1,0,4,17313,42202.75,168811,Y1.png,soup_t.png,S12.png,S6.png,S9.png,S1.png,S4.png,S3.png,293043
30320,15:34:04,8772,136977960,choice,choice2,0,1,1,5,19263,37615,188075,Y1.png,soup_t.png,S12.png,S5.png,S9.png,S13.png,S3.png,S7.png,312927
30320,15:34:04,8772,136977960,switch,choice2,0,0,1,5,19263,37615,188075,S12.png,soup_t.png,S12.png,S5.png,S9.png,S13.png,S3.png,S7.png,317223
30320,15:34:04,8772,136977960,choice,choice1,1,0,0,6,14427,33750.5,202503,S12.png,sand_t.png,SW6.png,SW9.png,SW8.png,SW7.png,SW1.png,SW11.png,332274
30320,15:34:04,8772,136977960,choice,choice4,0,0,1,7,6755,29894.14286,209259,S12.png,ready_t.png,RM5.png,RM4.png,RM12.png,RM9.png,RM13.png,RM8.png,339651
30320,15:34:04,8772,136977960,switch,choice4,0,0,1,7,6755,29894.14286,209259,RM5.png,ready_t.png,RM5.png,RM4.png,RM12.png,RM9.png,RM13.png,RM8.png,343308
30320,15:34:04,8772,136977960,choice,choice2,0,0,1,8,19468,28591,228728,RM5.png,yog_t.png,Y12.png,Y8.png,Y2.png,Y11.png,Y10.png,Y3.png,363397
30320,15:34:04,8772,136977960,switch,choice2,0,0,1,8,19468,28591,228728,Y12.png,yog_t.png,Y12.png,Y8.png,Y2.png,Y11.png,Y10.png,Y3.png,366078
30320,15:34:04,8772,136977960,choice,choice2,0,0,1,9,19246,27552.77778,247975,Y12.png,yog_t.png,Y4.png,Y8.png,Y3.png,Y2.png,Y10.png,Y11.png,385943
30320,15:34:04,8772,136977960,switch,choice2,0,0,1,9,19246,27552.77778,247975,Y4.png,yog_t.png,Y4.png,Y8.png,Y3.png,Y2.png,Y10.png,Y11.png,387425
30320,15:34:04,8772,136977960,choice,choice1,1,0,0,10,14282,26225.8,262258,Y4.png,crisps_t.png,C10.png,C4.png,C3.png,C2.png,C9.png,C6.png,402327
30320,15:34:04,8772,136977960,choice,choice3,0,0,1,11,4660,24265.36364,266919,Y4.png,cereal_t.png,BC2.png,BC11.png,BC3.png,BC12.png,BC8.png,BC1.png,407606
30320,15:34:04,8772,136977960,switch,choice3,0,0,1,11,4660,24265.36364,266919,BC2.png,cereal_t.png,BC2.png,BC11.png,BC3.png,BC12.png,BC8.png,BC1.png,410410
30320,15:34:04,8772,136977960,choice,choice1,1,0,0,12,26824,24478.66667,293744,BC2.png,sand_t.png,SW6.png,SW11.png,SW10.png,SW7.png,SW1.png,SW8.png,437853
30320,15:34:04,8772,136977960,choice,choice2,0,0,1,13,12120,23528.07692,305865,BC2.png,ready_t.png,RM5.png,RM11.png,RM1.png,RM3.png,RM13.png,RM2.png,450598
30320,15:34:04,8772,136977960,switch,choice2,0,0,1,13,12120,23528.07692,305865,RM5.png,ready_t.png,RM5.png,RM11.png,RM1.png,RM3.png,RM13.png,RM2.png,455348
30320,15:34:04,8772,136977960,choice,choice3,0,0,1,14,7003,22347.78571,312869,RM5.png,cereal_t.png,BC2.png,BC1.png,BC3.png,BC5.png,BC8.png,BC9.png,462964
30320,15:34:04,8772,136977960,switch,choice3,0,0,1,14,7003,22347.78571,312869,BC2.png,cereal_t.png,BC2.png,BC1.png,BC3.png,BC5.png,BC8.png,BC9.png,465131
30320,15:34:04,8772,136977960,choice,choice6,0,0,1,15,10488,21557.2,323358,BC2.png,sand_t.png,SW6.png,SW9.png,SW4.png,SW7.png,SW8.png,SW11.png,476233
30320,15:34:04,8772,136977960,switch,choice6,0,0,1,15,10488,21557.2,323358,SW6.png,sand_t.png,SW6.png,SW9.png,SW4.png,SW7.png,SW8.png,SW11.png,479388
30320,15:34:04,8772,136977960,breaktime,choice6,0,0,1,15,10488,21557.2,323358,SW6.png,sand_t.png,SW6.png,SW9.png,SW4.png,SW7.png,SW8.png,SW11.png,483914
30320,15:34:04,8772,136977960,choice,choice3,0,0,1,16,19364,21420.1875,342723,SW6.png,crisps_t.png,C7.png,C4.png,C3.png,C12.png,C6.png,C9.png,503892
30320,15:34:04,8772,136977960,switch,choice3,0,0,1,16,19364,21420.1875,342723,C7.png,crisps_t.png,C7.png,C4.png,C3.png,C12.png,C6.png,C9.png,505728
30320,15:34:04,8772,136977960,choice,choice2,0,0,1,17,15125,21049.94118,357849,C7.png,soup_t.png,S5.png,S9.png,S6.png,S10.png,S13.png,S3.png,521469
30320,15:34:04,8772,136977960,switch,choice2,0,0,1,17,15125,21049.94118,357849,S5.png,soup_t.png,S5.png,S9.png,S6.png,S10.png,S13.png,S3.png,523439
30320,15:34:04,8772,136977960,choice,choice4,0,0,1,18,3133,20054.61111,360983,S5.png,ready_t.png,RM5.png,RM4.png,RM11.png,RM9.png,RM2.png,RM12.png,527193
30320,15:34:04,8772,136977960,switch,choice4,0,0,1,18,3133,20054.61111,360983,RM5.png,ready_t.png,RM5.png,RM4.png,RM11.png,RM9.png,RM2.png,RM12.png,528696
30320,15:34:04,8772,136977960,choice,choice2,0,0,1,19,33811,20778.68421,394795,RM5.png,ready_t.png,RM5.png,RM11.png,RM1.png,RM8.png,RM13.png,RM2.png,563122
30320,15:34:04,8772,136977960,switch,choice2,0,0,1,19,33811,20778.68421,394795,RM5.png,ready_t.png,RM5.png,RM11.png,RM1.png,RM8.png,RM13.png,RM2.png,564761
30320,15:34:04,8772,136977960,choice,choice1,1,0,0,20,8747,20177.15,403543,RM5.png,cereal_t.png,BC2.png,BC1.png,BC12.png,BC4.png,BC8.png,BC5.png,574125
30320,15:34:04,8772,136977960,choice,choice1,1,0,0,21,13685,19868.04762,417229,RM5.png,sand_t.png,SW6.png,SW9.png,SW4.png,SW7.png,SW3.png,SW5.png,588427
30320,15:34:04,8772,136977960,choice,choice3,0,0,1,22,43633,20948.31818,460863,RM5.png,soup_t.png,S12.png,S5.png,S9.png,S3.png,S6.png,S13.png,632676
30320,15:34:04,8772,136977960,switch,choice3,0,0,1,22,43633,20948.31818,460863,S12.png,soup_t.png,S12.png,S5.png,S9.png,S3.png,S6.png,S13.png,634097
30320,15:34:04,8772,136977960,choice,choice3,0,0,1,23,17651,20805,478515,S12.png,cereal_t.png,BC2.png,BC11.png,BC3.png,BC9.png,BC8.png,BC1.png,652360
30320,15:34:04,8772,136977960,switch,choice3,0,0,1,23,17651,20805,478515,BC2.png,cereal_t.png,BC2.png,BC11.png,BC3.png,BC9.png,BC8.png,BC1.png,654580
30320,15:34:04,8772,136977960,choice,choice1,1,0,0,24,11131,20401.95833,489647,BC2.png,crisps_t.png,C5.png,C7.png,C3.png,C2.png,C11.png,C12.png,666324
30320,15:34:04,8772,136977960,choice,choice1,1,0,0,25,15578,20209.04,505226,BC2.png,yog_t.png,Y13.png,Y6.png,Y12.png,Y10.png,Y2.png,Y3.png,682520
30320,15:34:04,8772,136977960,choice,choice3,0,0,1,26,14562,19991.88462,519789,BC2.png,crisps_t.png,C10.png,C8.png,C5.png,C9.png,C2.png,C6.png,697704
30320,15:34:04,8772,136977960,switch,choice3,0,0,1,26,14562,19991.88462,519789,C10.png,crisps_t.png,C10.png,C8.png,C5.png,C9.png,C2.png,C6.png,700590
30320,15:34:04,8772,136977960,choice,choice1,1,0,0,27,31911,20433.37037,551701,C10.png,cereal_t.png,BC2.png,BC9.png,BC12.png,BC6.png,BC5.png,BC8.png,733119
30320,15:34:04,8772,136977960,choice,choice1,1,0,0,28,10664,20084.5,562366,C10.png,sand_t.png,SW6.png,SW9.png,SW8.png,SW7.png,SW1.png,SW11.png,744405
30320,15:34:04,8772,136977960,choice,choice4,0,0,1,29,10344,19748.65517,572711,C10.png,ready_t.png,RM5.png,RM4.png,RM12.png,RM9.png,RM13.png,RM8.png,755369
30320,15:34:04,8772,136977960,switch,choice4,0,0,1,29,10344,19748.65517,572711,RM5.png,ready_t.png,RM5.png,RM4.png,RM12.png,RM9.png,RM13.png,RM8.png,757938
30320,15:34:04,8772,136977960,choice,choice3,0,0,1,30,25151,19928.76667,597863,RM5.png,soup_t.png,S12.png,S5.png,S9.png,S3.png,S6.png,S13.png,783709
30320,15:34:04,8772,136977960,switch,choice3,0,0,1,30,25151,19928.76667,597863,S12.png,soup_t.png,S12.png,S5.png,S9.png,S3.png,S6.png,S13.png,785800
30620,17:46:38,9782,908174027,choice,choice1,1,0,0,1,10261,10262,10262,RM5.png,sand_t.png,SW6.png,SW11.png,SW10.png,SW7.png,SW1.png,SW8.png,66368
30620,17:46:38,9782,908174027,choice,choice1,1,0,0,2,10089,10176,20352,RM5.png,crisps_t.png,C5.png,C7.png,C3.png,C2.png,C11.png,C12.png,77045
30620,17:46:38,9782,908174027,choice,choice1,1,0,0,3,5066,8473,25419,RM5.png,yog_t.png,Y1.png,Y8.png,Y3.png,Y12.png,Y10.png,Y2.png,82689
30620,17:46:38,9782,908174027,choice,choice2,0,0,1,4,6105,7881.25,31525,RM5.png,ready_t.png,RM5.png,RM11.png,RM1.png,RM8.png,RM13.png,RM2.png,89361
30620,17:46:38,9782,908174027,switch,choice2,0,0,1,4,6105,7881.25,31525,RM5.png,ready_t.png,RM5.png,RM11.png,RM1.png,RM8.png,RM13.png,RM2.png,96337
30620,17:46:38,9782,908174027,choice,choice1,1,0,0,5,6614,7628,38140,RM5.png,cereal_t.png,BC2.png,BC1.png,BC12.png,BC4.png,BC8.png,BC5.png,103520
30620,17:46:38,9782,908174027,choice,choice1,1,0,0,6,5367,7251.333333,43508,RM5.png,crisps_t.png,C10.png,C4.png,C3.png,C2.png,C9.png,C6.png,109454
30620,17:46:38,9782,908174027,choice,choice2,0,0,1,7,4668,6882.428571,48177,RM5.png,ready_t.png,RM5.png,RM11.png,RM1.png,RM7.png,RM13.png,RM2.png,114689
30620,17:46:38,9782,908174027,switch,choice2,0,1,1,7,4668,6882.428571,48177,RM5.png,ready_t.png,RM5.png,RM11.png,RM1.png,RM7.png,RM13.png,RM2.png,116523
30620,17:46:38,9782,908174027,choice,choice1,1,1,0,8,16376,8069.25,64554,RM5.png,crisps_t.png,C10.png,C8.png,C5.png,C9.png,C2.png,C6.png,133491
30620,17:46:38,9782,908174027,choice,choice1,1,1,0,9,6822,7930.777778,71377,RM5.png,yog_t.png,Y13.png,Y6.png,Y12.png,Y10.png,Y2.png,Y3.png,140874
30620,17:46:38,9782,908174027,choice,choice2,0,1,1,10,10248,8162.6,81626,RM5.png,soup_t.png,S12.png,S5.png,S9.png,S3.png,S6.png,S13.png,151685
30620,17:46:38,9782,908174027,switch,choice2,0,0,1,10,10248,8162.6,81626,S12.png,soup_t.png,S12.png,S5.png,S9.png,S3.png,S6.png,S13.png,154197
30620,17:46:38,9782,908174027,choice,choice1,1,0,0,11,5217,7894.909091,86844,S12.png,cereal_t.png,BC2.png,BC11.png,BC3.png,BC12.png,BC8.png,BC1.png,159989
30620,17:46:38,9782,908174027,choice,choice1,1,0,0,12,10670,8126.25,97515,S12.png,sand_t.png,SW6.png,SW9.png,SW4.png,SW7.png,SW8.png,SW11.png,171222
30620,17:46:38,9782,908174027,choice,choice4,0,0,1,13,2932,7726.769231,100448,S12.png,ready_t.png,RM5.png,RM4.png,RM11.png,RM9.png,RM2.png,RM12.png,174718
30620,17:46:38,9782,908174027,switch,choice4,0,0,1,13,2932,7726.769231,100448,RM5.png,ready_t.png,RM5.png,RM4.png,RM11.png,RM9.png,RM2.png,RM12.png,177036
30620,17:46:38,9782,908174027,choice,choice4,0,0,1,14,3502,7425.071429,103951,RM5.png,ready_t.png,RM5.png,RM4.png,RM12.png,RM9.png,RM13.png,RM8.png,181102
30620,17:46:38,9782,908174027,switch,choice4,0,0,1,14,3502,7425.071429,103951,RM5.png,ready_t.png,RM5.png,RM4.png,RM12.png,RM9.png,RM13.png,RM8.png,183291
30620,17:46:38,9782,908174027,choice,choice1,1,0,0,15,22833,8452.333333,126785,RM5.png,crisps_t.png,C7.png,C4.png,C3.png,C12.png,C6.png,C9.png,206683
30620,17:46:38,9782,908174027,breaktime,choice1,1,0,0,15,22833,8452.333333,126785,RM5.png,crisps_t.png,C7.png,C4.png,C3.png,C12.png,C6.png,C9.png,208808
30620,17:46:38,9782,908174027,choice,choice1,1,0,0,16,2406,8074.5,129192,RM5.png,yog_t.png,Y4.png,Y8.png,Y3.png,Y2.png,Y10.png,Y11.png,211771
30620,17:46:38,9782,908174027,choice,choice1,1,0,0,17,5902,7946.764706,135095,RM5.png,crisps_t.png,C10.png,C4.png,C3.png,C6.png,C2.png,C7.png,218233
30620,17:46:38,9782,908174027,choice,choice6,0,0,1,18,10244,8074.444444,145340,RM5.png,sand_t.png,SW6.png,SW9.png,SW8.png,SW7.png,SW1.png,SW11.png,229042
30620,17:46:38,9782,908174027,switch,choice6,0,0,1,18,10244,8074.444444,145340,SW6.png,sand_t.png,SW6.png,SW9.png,SW8.png,SW7.png,SW1.png,SW11.png,230968
30620,17:46:38,9782,908174027,choice,choice1,1,0,0,19,15410,8460.578947,160751,SW6.png,sand_t.png,SW6.png,SW9.png,SW4.png,SW7.png,SW3.png,SW5.png,246941
30620,17:46:38,9782,908174027,choice,choice2,0,0,1,20,2955,8185.35,163707,SW6.png,yog_t.png,Y12.png,Y8.png,Y2.png,Y11.png,Y10.png,Y3.png,250451
30620,17:46:38,9782,908174027,switch,choice2,0,1,1,20,2955,8185.35,163707,Y12.png,yog_t.png,Y12.png,Y8.png,Y2.png,Y11.png,Y10.png,Y3.png,252672
30620,17:46:38,9782,908174027,choice,choice1,1,1,0,21,9571,8251.380952,173279,Y12.png,sand_t.png,SW6.png,SW9.png,SW3.png,SW7.png,SW1.png,SW10.png,262800
30620,17:46:38,9782,908174027,choice,choice1,1,1,0,22,7418,8213.545455,180698,Y12.png,cereal_t.png,BC2.png,BC9.png,BC12.png,BC6.png,BC5.png,BC8.png,270781
30620,17:46:38,9782,908174027,choice,choice2,0,1,1,23,32749,9280.347826,213448,Y12.png,ready_t.png,RM5.png,RM11.png,RM1.png,RM3.png,RM13.png,RM2.png,304111
30620,17:46:38,9782,908174027,switch,choice2,0,0,1,23,32749,9280.347826,213448,RM5.png,ready_t.png,RM5.png,RM11.png,RM1.png,RM3.png,RM13.png,RM2.png,307103
30620,17:46:38,9782,908174027,choice,choice1,1,0,0,24,5565,9125.583333,219014,RM5.png,yog_t.png,Y1.png,Y9.png,Y10.png,Y12.png,Y2.png,Y3.png,313243
30620,17:46:38,9782,908174027,choice,choice1,1,0,0,25,6483,9019.92,225498,RM5.png,cereal_t.png,BC2.png,BC11.png,BC3.png,BC9.png,BC8.png,BC1.png,320292
30620,17:46:38,9782,908174027,choice,choice1,1,0,0,26,8943,9017,234442,RM5.png,soup_t.png,S12.png,S5.png,S9.png,S13.png,S3.png,S7.png,329802
30620,17:46:38,9782,908174027,choice,choice1,1,0,0,27,3310,8805.666667,237753,RM5.png,soup_t.png,S12.png,S6.png,S9.png,S1.png,S4.png,S3.png,333685
30620,17:46:38,9782,908174027,choice,choice2,0,0,1,28,4081,8636.964286,241835,RM5.png,ready_t.png,RM5.png,RM11.png,RM1.png,RM7.png,RM13.png,RM2.png,338322
30620,17:46:38,9782,908174027,switch,choice2,0,0,1,28,4081,8636.964286,241835,RM5.png,ready_t.png,RM5.png,RM11.png,RM1.png,RM7.png,RM13.png,RM2.png,339724
30620,17:46:38,9782,908174027,choice,choice2,0,0,1,29,3235,8450.724138,245071,RM5.png,ready_t.png,RM5.png,RM11.png,RM1.png,RM3.png,RM13.png,RM2.png,343527
30620,17:46:38,9782,908174027,switch,choice2,0,0,1,29,3235,8450.724138,245071,RM5.png,ready_t.png,RM5.png,RM11.png,RM1.png,RM3.png,RM13.png,RM2.png,344843
30620,17:46:38,9782,908174027,choice,choice2,0,0,1,30,10450,8517.4,255522,RM5.png,soup_t.png,S12.png,S5.png,S9.png,S13.png,S3.png,S7.png,355868
30620,17:46:38,9782,908174027,switch,choice2,0,0,1,30,10450,8517.4,255522,S12.png,soup_t.png,S12.png,S5.png,S9.png,S13.png,S3.png,S7.png,357270
31120,08:33:36,8670,376185197,choice,choice4,0,0,1,1,6325,6326,6326,RM5.png,ready_t.png,RM5.png,RM4.png,RM11.png,RM9.png,RM2.png,RM12.png,71849
31120,08:33:36,8670,376185197,switch,choice4,0,0,1,1,6325,6326,6326,RM5.png,ready_t.png,RM5.png,RM4.png,RM11.png,RM9.png,RM2.png,RM12.png,77937
31120,08:33:36,8670,376185197,choice,choice1,1,0,0,2,9066,7696.5,15393,RM5.png,crisps_t.png,C5.png,C7.png,C3.png,C2.png,C11.png,C12.png,87641
31120,08:33:36,8670,376185197,choice,choice1,1,0,0,3,6902,7432,22296,RM5.png,sand_t.png,SW6.png,SW9.png,SW4.png,SW7.png,SW8.png,SW11.png,95161
31120,08:33:36,8670,376185197,choice,choice1,1,0,0,4,6740,7259.25,29037,RM5.png,yog_t.png,Y12.png,Y8.png,Y2.png,Y11.png,Y10.png,Y3.png,102533
31120,08:33:36,8670,376185197,choice,choice2,0,0,1,5,10049,7817.4,39087,RM5.png,ready_t.png,RM5.png,RM11.png,RM1.png,RM7.png,RM13.png,RM2.png,113210
31120,08:33:36,8670,376185197,switch,choice2,0,0,1,5,10049,7817.4,39087,RM5.png,ready_t.png,RM5.png,RM11.png,RM1.png,RM7.png,RM13.png,RM2.png,118573
31120,08:33:36,8670,376185197,choice,choice1,1,0,0,6,9770,8143,48858,RM5.png,sand_t.png,SW6.png,SW11.png,SW10.png,SW7.png,SW1.png,SW8.png,128964
31120,08:33:36,8670,376185197,choice,choice1,1,0,0,7,10570,8489.857143,59429,RM5.png,crisps_t.png,C10.png,C4.png,C3.png,C2.png,C9.png,C6.png,140149
31120,08:33:36,8670,376185197,choice,choice1,1,0,0,8,8576,8500.75,68006,RM5.png,cereal_t.png,BC2.png,BC11.png,BC3.png,BC9.png,BC8.png,BC1.png,149355
31120,08:33:36,8670,376185197,choice,choice1,1,0,0,9,12816,8980.333333,80823,RM5.png,yog_t.png,Y4.png,Y8.png,Y3.png,Y2.png,Y10.png,Y11.png,162796
31120,08:33:36,8670,376185197,choice,choice1,1,0,0,10,7948,8877.2,88772,RM5.png,cereal_t.png,BC2.png,BC11.png,BC3.png,BC12.png,BC8.png,BC1.png,171362
31120,08:33:36,8670,376185197,choice,choice1,1,0,0,11,5128,8536.454545,93901,RM5.png,sand_t.png,SW6.png,SW9.png,SW3.png,SW7.png,SW1.png,SW10.png,177109
31120,08:33:36,8670,376185197,choice,choice1,1,0,0,12,7255,8429.75,101157,RM5.png,soup_t.png,S12.png,S6.png,S9.png,S1.png,S4.png,S3.png,184986
31120,08:33:36,8670,376185197,choice,choice2,0,0,1,13,8323,8421.615385,109481,RM5.png,ready_t.png,RM5.png,RM11.png,RM1.png,RM3.png,RM13.png,RM2.png,193939
31120,08:33:36,8670,376185197,switch,choice2,0,0,1,13,8323,8421.615385,109481,RM5.png,ready_t.png,RM5.png,RM11.png,RM1.png,RM3.png,RM13.png,RM2.png,196590
31120,08:33:36,8670,376185197,choice,choice1,1,0,0,14,8518,8428.571429,118000,RM5.png,soup_t.png,S12.png,S5.png,S9.png,S13.png,S3.png,S7.png,205751
31120,08:33:36,8670,376185197,choice,choice2,0,0,1,15,9587,8505.866667,127588,RM5.png,ready_t.png,RM5.png,RM11.png,RM1.png,RM8.png,RM13.png,RM2.png,215955
31120,08:33:36,8670,376185197,switch,choice2,0,0,1,15,9587,8505.866667,127588,RM5.png,ready_t.png,RM5.png,RM11.png,RM1.png,RM8.png,RM13.png,RM2.png,218787
31120,08:33:36,8670,376185197,breaktime,choice2,0,0,1,15,9587,8505.866667,127588,RM5.png,ready_t.png,RM5.png,RM11.png,RM1.png,RM8.png,RM13.png,RM2.png,316852
31120,08:33:36,8670,376185197,choice,choice1,1,0,0,16,7836,8464.0625,135425,RM5.png,sand_t.png,SW6.png,SW9.png,SW8.png,SW7.png,SW1.png,SW11.png,325311
31120,08:33:36,8670,376185197,choice,choice2,0,0,1,17,10023,8555.823529,145449,RM5.png,soup_t.png,S5.png,S9.png,S6.png,S10.png,S13.png,S3.png,335949
31120,08:33:36,8670,376185197,switch,choice2,0,1,1,17,10023,8555.823529,145449,S5.png,soup_t.png,S5.png,S9.png,S6.png,S10.png,S13.png,S3.png,338785
31120,08:33:36,8670,376185197,choice,choice1,1,1,0,18,11569,8723.277778,157019,S5.png,cereal_t.png,BC2.png,BC1.png,BC12.png,BC4.png,BC8.png,BC5.png,350996
31120,08:33:36,8670,376185197,choice,choice4,0,1,1,19,4399,8495.736842,161419,S5.png,ready_t.png,RM5.png,RM4.png,RM12.png,RM9.png,RM13.png,RM8.png,356008
31120,08:33:36,8670,376185197,switch,choice4,0,0,1,19,4399,8495.736842,161419,RM5.png,ready_t.png,RM5.png,RM4.png,RM12.png,RM9.png,RM13.png,RM8.png,359124
31120,08:33:36,8670,376185197,choice,choice1,1,0,0,20,6725,8407.25,168145,RM5.png,crisps_t.png,C10.png,C4.png,C3.png,C6.png,C2.png,C7.png,366469
31120,08:33:36,8670,376185197,choice,choice1,1,0,0,21,10598,8511.619048,178744,RM5.png,sand_t.png,SW6.png,SW9.png,SW4.png,SW7.png,SW3.png,SW5.png,377694
31120,08:33:36,8670,376185197,choice,choice1,1,0,0,22,10037,8581,188782,RM5.png,crisps_t.png,C7.png,C4.png,C3.png,C12.png,C6.png,C9.png,388350
31120,08:33:36,8670,376185197,choice,choice1,1,0,0,23,6807,8503.913043,195590,RM5.png,yog_t.png,Y13.png,Y6.png,Y12.png,Y10.png,Y2.png,Y3.png,395786
31120,08:33:36,8670,376185197,choice,choice1,1,0,0,24,4600,8341.291667,200191,RM5.png,crisps_t.png,C10.png,C8.png,C5.png,C9.png,C2.png,C6.png,401014
31120,08:33:36,8670,376185197,choice,choice1,1,0,0,25,6529,8268.84,206721,RM5.png,soup_t.png,S12.png,S13.png,S9.png,S7.png,S3.png,S4.png,408159
31120,08:33:36,8670,376185197,choice,choice4,0,0,1,26,4678,8130.769231,211400,RM5.png,yog_t.png,Y1.png,Y9.png,Y10.png,Y12.png,Y2.png,Y3.png,413460
31120,08:33:36,8670,376185197,switch,choice4,0,0,1,26,4678,8130.769231,211400,Y1.png,yog_t.png,Y1.png,Y9.png,Y10.png,Y12.png,Y2.png,Y3.png,416990
31120,08:33:36,8670,376185197,choice,choice1,1,0,0,27,8701,8151.925926,220102,Y1.png,cereal_t.png,BC2.png,BC1.png,BC3.png,BC5.png,BC8.png,BC9.png,426316
31120,08:33:36,8670,376185197,choice,choice2,0,0,1,28,9260,8191.535714,229363,Y1.png,ready_t.png,RM5.png,RM11.png,RM1.png,RM8.png,RM13.png,RM2.png,436193
31120,08:33:36,8670,376185197,switch,choice2,0,0,1,28,9260,8191.535714,229363,RM5.png,ready_t.png,RM5.png,RM11.png,RM1.png,RM8.png,RM13.png,RM2.png,438490
31120,08:33:36,8670,376185197,choice,choice1,1,0,0,29,8548,8203.862069,237912,RM5.png,yog_t.png,Y4.png,Y8.png,Y3.png,Y2.png,Y10.png,Y11.png,447648
31120,08:33:36,8670,376185197,choice,choice1,1,0,0,30,6972,8162.833333,244885,RM5.png,crisps_t.png,C5.png,C7.png,C3.png,C2.png,C11.png,C12.png,455240
40520,14:41:42,9890,816125647,choice,choice3,0,0,1,1,11097,11098,11098,RM5.png,cereal_t.png,BC2.png,BC11.png,BC3.png,BC9.png,BC8.png,BC1.png,73129
40520,14:41:42,9890,816125647,switch,choice3,0,0,1,1,11097,11098,11098,BC2.png,cereal_t.png,BC2.png,BC11.png,BC3.png,BC9.png,BC8.png,BC1.png,86331
40520,14:41:42,9890,816125647,choice,choice3,0,0,1,2,13864,12481.5,24963,BC2.png,cereal_t.png,BC2.png,BC1.png,BC3.png,BC5.png,BC8.png,BC9.png,100760
40520,14:41:42,9890,816125647,switch,choice3,0,0,1,2,13864,12481.5,24963,BC2.png,cereal_t.png,BC2.png,BC1.png,BC3.png,BC5.png,BC8.png,BC9.png,113445
40520,14:41:42,9890,816125647,choice,choice1,1,0,0,3,8646,11203.33333,33610,BC2.png,yog_t.png,Y13.png,Y6.png,Y12.png,Y10.png,Y2.png,Y3.png,122674
40520,14:41:42,9890,816125647,choice,choice1,1,0,0,4,9792,10850.75,43403,BC2.png,yog_t.png,Y1.png,Y9.png,Y10.png,Y12.png,Y2.png,Y3.png,133035
40520,14:41:42,9890,816125647,choice,choice1,1,0,0,5,14345,11549.8,57749,BC2.png,crisps_t.png,C10.png,C4.png,C3.png,C6.png,C2.png,C7.png,147954
40520,14:41:42,9890,816125647,choice,choice1,1,0,0,6,16620,12395,74370,BC2.png,yog_t.png,Y4.png,Y8.png,Y3.png,Y2.png,Y10.png,Y11.png,165145
40520,14:41:42,9890,816125647,choice,choice1,1,0,0,7,10133,12072,84504,BC2.png,crisps_t.png,C5.png,C7.png,C3.png,C2.png,C11.png,C12.png,175840
40520,14:41:42,9890,816125647,choice,choice1,1,0,0,8,8681,11648.25,93186,BC2.png,sand_t.png,SW6.png,SW9.png,SW8.png,SW7.png,SW1.png,SW11.png,185087
40520,14:41:42,9890,816125647,choice,choice1,1,0,0,9,11150,11593,104337,BC2.png,soup_t.png,S12.png,S5.png,S9.png,S3.png,S6.png,S13.png,196822
40520,14:41:42,9890,816125647,choice,choice1,1,0,0,10,8782,11312,113120,BC2.png,sand_t.png,SW6.png,SW9.png,SW4.png,SW7.png,SW8.png,SW11.png,206170
40520,14:41:42,9890,816125647,choice,choice1,1,0,0,11,11756,11352.45455,124877,BC2.png,crisps_t.png,C7.png,C4.png,C3.png,C12.png,C6.png,C9.png,218493
40520,14:41:42,9890,816125647,choice,choice1,1,0,0,12,5967,10903.75,130845,BC2.png,crisps_t.png,C10.png,C4.png,C3.png,C2.png,C9.png,C6.png,225020
40520,14:41:42,9890,816125647,choice,choice2,0,0,1,13,15281,11240.53846,146127,BC2.png,ready_t.png,RM5.png,RM11.png,RM1.png,RM7.png,RM13.png,RM2.png,240884
40520,14:41:42,9890,816125647,switch,choice2,0,0,1,13,15281,11240.53846,146127,RM5.png,ready_t.png,RM5.png,RM11.png,RM1.png,RM7.png,RM13.png,RM2.png,248174
40520,14:41:42,9890,816125647,choice,choice1,1,0,0,14,15732,11561.42857,161860,RM5.png,soup_t.png,S12.png,S5.png,S9.png,S13.png,S3.png,S7.png,264483
40520,14:41:42,9890,816125647,choice,choice2,0,0,1,15,9559,11428,171420,RM5.png,ready_t.png,RM5.png,RM11.png,RM1.png,RM3.png,RM13.png,RM2.png,274609
40520,14:41:42,9890,816125647,switch,choice2,0,0,1,15,9559,11428,171420,RM5.png,ready_t.png,RM5.png,RM11.png,RM1.png,RM3.png,RM13.png,RM2.png,279456
40520,14:41:42,9890,816125647,breaktime,choice2,0,0,1,15,9559,11428,171420,RM5.png,ready_t.png,RM5.png,RM11.png,RM1.png,RM3.png,RM13.png,RM2.png,282291
40520,14:41:42,9890,816125647,choice,choice1,1,0,0,16,6837,11141.125,178258,RM5.png,yog_t.png,Y12.png,Y8.png,Y2.png,Y11.png,Y10.png,Y3.png,289702
40520,14:41:42,9890,816125647,choice,choice2,0,0,1,17,6426,10863.82353,184685,RM5.png,ready_t.png,RM5.png,RM11.png,RM1.png,RM8.png,RM13.png,RM2.png,296690
40520,14:41:42,9890,816125647,switch,choice2,0,0,1,17,6426,10863.82353,184685,RM5.png,ready_t.png,RM5.png,RM11.png,RM1.png,RM8.png,RM13.png,RM2.png,301992
40520,14:41:42,9890,816125647,choice,choice1,1,0,0,18,6812,10638.77778,191498,RM5.png,sand_t.png,SW6.png,SW9.png,SW4.png,SW7.png,SW3.png,SW5.png,309376
40520,14:41:42,9890,816125647,choice,choice1,1,0,0,19,7096,10452.36842,198595,RM5.png,sand_t.png,SW6.png,SW9.png,SW3.png,SW7.png,SW1.png,SW10.png,317042
40520,14:41:42,9890,816125647,choice,choice1,1,0,0,20,6313,10245.45,204909,RM5.png,soup_t.png,S12.png,S6.png,S9.png,S1.png,S4.png,S3.png,323925
40520,14:41:42,9890,816125647,choice,choice1,1,0,0,21,17257,10579.38095,222167,RM5.png,cereal_t.png,BC2.png,BC1.png,BC12.png,BC4.png,BC8.png,BC5.png,341753
40520,14:41:42,9890,816125647,choice,choice1,1,0,0,22,7884,10456.90909,230052,RM5.png,soup_t.png,S5.png,S9.png,S6.png,S10.png,S13.png,S3.png,350211
40520,14:41:42,9890,816125647,choice,choice1,1,0,0,23,12366,10539.95652,242419,RM5.png,cereal_t.png,BC2.png,BC11.png,BC3.png,BC12.png,BC8.png,BC1.png,363143
40520,14:41:42,9890,816125647,choice,choice3,0,0,1,24,3618,10251.58333,246038,RM5.png,ready_t.png,RM5.png,RM4.png,RM11.png,RM9.png,RM2.png,RM12.png,367343
40520,14:41:42,9890,816125647,switch,choice3,0,1,1,24,3618,10251.58333,246038,RM5.png,ready_t.png,RM5.png,RM4.png,RM11.png,RM9.png,RM2.png,RM12.png,375588
40520,14:41:42,9890,816125647,choice,choice1,1,1,0,25,18855,10595.76,264894,RM5.png,crisps_t.png,C10.png,C8.png,C5.png,C9.png,C2.png,C6.png,395013
40520,14:41:42,9890,816125647,choice,choice4,0,1,1,26,7354,10471.11538,272249,RM5.png,ready_t.png,RM5.png,RM4.png,RM12.png,RM9.png,RM13.png,RM8.png,402944
40520,14:41:42,9890,816125647,switch,choice4,0,0,1,26,7354,10471.11538,272249,RM5.png,ready_t.png,RM5.png,RM4.png,RM12.png,RM9.png,RM13.png,RM8.png,410913
40520,14:41:42,9890,816125647,choice,choice1,1,0,0,27,7148,10348.07407,279398,RM5.png,cereal_t.png,BC2.png,BC9.png,BC12.png,BC6.png,BC5.png,BC8.png,418637
40520,14:41:42,9890,816125647,choice,choice2,0,0,1,28,13007,10443.07143,292406,RM5.png,ready_t.png,RM5.png,RM11.png,RM1.png,RM3.png,RM13.png,RM2.png,432212
40520,14:41:42,9890,816125647,switch,choice2,0,0,1,28,13007,10443.07143,292406,RM5.png,ready_t.png,RM5.png,RM11.png,RM1.png,RM3.png,RM13.png,RM2.png,434865
40520,14:41:42,9890,816125647,choice,choice1,1,0,0,29,12316,10507.68966,304723,RM5.png,yog_t.png,Y13.png,Y6.png,Y12.png,Y10.png,Y2.png,Y3.png,447753
40520,14:41:42,9890,816125647,choice,choice1,1,0,0,30,4255,10299.3,308979,RM5.png,soup_t.png,S12.png,S6.png,S9.png,S1.png,S4.png,S3.png,452575
40620,19:29:45,9738,851075623,choice,choice6,0,0,1,1,3653,3654,3654,RM5.png,sand_t.png,SW6.png,SW9.png,SW8.png,SW7.png,SW1.png,SW11.png,63700
40620,19:29:45,9738,851075623,switch,choice6,0,1,1,1,3653,3654,3654,SW6.png,sand_t.png,SW6.png,SW9.png,SW8.png,SW7.png,SW1.png,SW11.png,68119
40620,19:29:45,9738,851075623,choice,choice4,0,1,1,2,7298,5476.5,10953,SW6.png,ready_t.png,RM5.png,RM11.png,RM1.png,RM7.png,RM13.png,RM2.png,75987
40620,19:29:45,9738,851075623,switch,choice4,0,0,1,2,7298,5476.5,10953,RM5.png,ready_t.png,RM5.png,RM11.png,RM1.png,RM7.png,RM13.png,RM2.png,82620
40620,19:29:45,9738,851075623,choice,choice4,0,0,1,3,4400,5118,15354,RM5.png,ready_t.png,RM5.png,RM4.png,RM11.png,RM9.png,RM2.png,RM12.png,87592
40620,19:29:45,9738,851075623,switch,choice4,0,0,1,3,4400,5118,15354,RM5.png,ready_t.png,RM5.png,RM4.png,RM11.png,RM9.png,RM2.png,RM12.png,91563
40620,19:29:45,9738,851075623,choice,choice3,0,0,1,4,3614,4742.25,18969,RM5.png,crisps_t.png,C10.png,C8.png,C5.png,C9.png,C2.png,C6.png,95747
40620,19:29:45,9738,851075623,switch,choice3,0,0,1,4,3614,4742.25,18969,C10.png,crisps_t.png,C10.png,C8.png,C5.png,C9.png,C2.png,C6.png,99642
40620,19:29:45,9738,851075623,choice,choice1,1,0,0,5,5669,4927.8,24639,C10.png,cereal_t.png,BC2.png,BC9.png,BC12.png,BC6.png,BC5.png,BC8.png,105878
40620,19:29:45,9738,851075623,choice,choice3,0,0,1,6,3677,4719.5,28317,C10.png,cereal_t.png,BC2.png,BC1.png,BC3.png,BC5.png,BC8.png,BC9.png,110129
40620,19:29:45,9738,851075623,switch,choice3,0,1,1,6,3677,4719.5,28317,BC2.png,cereal_t.png,BC2.png,BC1.png,BC3.png,BC5.png,BC8.png,BC9.png,113647
40620,19:29:45,9738,851075623,choice,choice2,0,1,1,7,6350,4952.571429,34668,BC2.png,ready_t.png,RM5.png,RM11.png,RM1.png,RM8.png,RM13.png,RM2.png,120561
40620,19:29:45,9738,851075623,switch,choice2,0,0,1,7,6350,4952.571429,34668,RM5.png,ready_t.png,RM5.png,RM11.png,RM1.png,RM8.png,RM13.png,RM2.png,122503
40620,19:29:45,9738,851075623,choice,choice1,1,0,0,8,7557,5278.25,42226,RM5.png,yog_t.png,Y1.png,Y8.png,Y3.png,Y12.png,Y10.png,Y2.png,130642
40620,19:29:45,9738,851075623,choice,choice1,1,0,0,9,5631,5317.555556,47858,RM5.png,yog_t.png,Y4.png,Y8.png,Y3.png,Y2.png,Y10.png,Y11.png,136842
40620,19:29:45,9738,851075623,choice,choice1,1,0,0,10,8499,5635.8,56358,RM5.png,crisps_t.png,C7.png,C4.png,C3.png,C12.png,C6.png,C9.png,145903
40620,19:29:45,9738,851075623,choice,choice3,0,0,1,11,9419,5979.818182,65778,RM5.png,sand_t.png,SW6.png,SW9.png,SW4.png,SW7.png,SW8.png,SW11.png,155898
40620,19:29:45,9738,851075623,switch,choice3,0,0,1,11,9419,5979.818182,65778,SW6.png,sand_t.png,SW6.png,SW9.png,SW4.png,SW7.png,SW8.png,SW11.png,158988
40620,19:29:45,9738,851075623,choice,choice6,0,0,1,12,5929,5975.666667,71708,SW6.png,sand_t.png,SW6.png,SW9.png,SW4.png,SW7.png,SW3.png,SW5.png,165478
40620,19:29:45,9738,851075623,switch,choice6,0,1,1,12,5929,5975.666667,71708,SW6.png,sand_t.png,SW6.png,SW9.png,SW4.png,SW7.png,SW3.png,SW5.png,166821
40620,19:29:45,9738,851075623,choice,choice4,0,1,1,13,9510,6247.615385,81219,SW6.png,soup_t.png,S12.png,S5.png,S9.png,S13.png,S3.png,S7.png,176902
40620,19:29:45,9738,851075623,switch,choice4,0,1,1,13,9510,6247.615385,81219,S12.png,soup_t.png,S12.png,S5.png,S9.png,S13.png,S3.png,S7.png,178684
40620,19:29:45,9738,851075623,choice,choice1,1,1,0,14,9347,6469.071429,90567,S12.png,soup_t.png,S12.png,S6.png,S9.png,S1.png,S4.png,S3.png,188594
40620,19:29:45,9738,851075623,choice,choice1,1,1,0,15,7172,6516,97740,S12.png,crisps_t.png,C10.png,C4.png,C3.png,C2.png,C9.png,C6.png,196326
40620,19:29:45,9738,851075623,breaktime,choice1,1,1,0,15,7172,6516,97740,S12.png,crisps_t.png,C10.png,C4.png,C3.png,C2.png,C9.png,C6.png,198023
40620,19:29:45,9738,851075623,choice,choice2,0,1,1,16,8459,6637.5,106200,S12.png,ready_t.png,RM5.png,RM11.png,RM1.png,RM3.png,RM13.png,RM2.png,207053
40620,19:29:45,9738,851075623,switch,choice2,0,0,1,16,8459,6637.5,106200,RM5.png,ready_t.png,RM5.png,RM11.png,RM1.png,RM3.png,RM13.png,RM2.png,209042
40620,19:29:45,9738,851075623,choice,choice1,1,0,0,17,10137,6843.411765,116338,RM5.png,yog_t.png,Y1.png,Y9.png,Y10.png,Y12.png,Y2.png,Y3.png,219754
40620,19:29:45,9738,851075623,choice,choice1,1,0,0,18,3437,6654.222222,119776,RM5.png,yog_t.png,Y13.png,Y6.png,Y12.png,Y10.png,Y2.png,Y3.png,223760
40620,19:29:45,9738,851075623,choice,choice1,1,0,0,19,5408,6588.684211,125185,RM5.png,cereal_t.png,BC2.png,BC1.png,BC12.png,BC4.png,BC8.png,BC5.png,229744
40620,19:29:45,9738,851075623,choice,choice4,0,0,1,20,4867,6502.65,130053,RM5.png,ready_t.png,RM5.png,RM4.png,RM12.png,RM9.png,RM13.png,RM8.png,235181
40620,19:29:45,9738,851075623,switch,choice4,0,0,1,20,4867,6502.65,130053,RM5.png,ready_t.png,RM5.png,RM4.png,RM12.png,RM9.png,RM13.png,RM8.png,236828
40620,19:29:45,9738,851075623,choice,choice2,0,0,1,21,6375,6496.619048,136429,RM5.png,soup_t.png,S12.png,S5.png,S9.png,S3.png,S6.png,S13.png,243764
40620,19:29:45,9738,851075623,switch,choice2,0,0,1,21,6375,6496.619048,136429,S12.png,soup_t.png,S12.png,S5.png,S9.png,S3.png,S6.png,S13.png,245563
40620,19:29:45,9738,851075623,choice,choice2,0,0,1,22,7193,6528.318182,143623,S12.png,sand_t.png,SW6.png,SW11.png,SW10.png,SW7.png,SW1.png,SW8.png,253324
40620,19:29:45,9738,851075623,switch,choice2,0,0,1,22,7193,6528.318182,143623,SW6.png,sand_t.png,SW6.png,SW11.png,SW10.png,SW7.png,SW1.png,SW8.png,255184
40620,19:29:45,9738,851075623,choice,choice3,0,0,1,23,6758,6538.347826,150382,SW6.png,soup_t.png,S12.png,S13.png,S9.png,S7.png,S3.png,S4.png,262513
40620,19:29:45,9738,851075623,switch,choice3,0,0,1,23,6758,6538.347826,150382,S12.png,soup_t.png,S12.png,S13.png,S9.png,S7.png,S3.png,S4.png,264175
40620,19:29:45,9738,851075623,choice,choice1,1,0,0,24,6932,6554.791667,157315,S12.png,crisps_t.png,C10.png,C4.png,C3.png,C6.png,C2.png,C7.png,271678
40620,19:29:45,9738,851075623,choice,choice1,1,0,0,25,5218,6501.36,162534,S12.png,yog_t.png,Y12.png,Y8.png,Y2.png,Y11.png,Y10.png,Y3.png,277457
40620,19:29:45,9738,851075623,choice,choice3,0,0,1,26,2073,6331.076923,164608,S12.png,cereal_t.png,BC2.png,BC11.png,BC3.png,BC12.png,BC8.png,BC1.png,280106
40620,19:29:45,9738,851075623,switch,choice3,0,0,1,26,2073,6331.076923,164608,BC2.png,cereal_t.png,BC2.png,BC11.png,BC3.png,BC12.png,BC8.png,BC1.png,282704
40620,19:29:45,9738,851075623,choice,choice1,1,0,0,27,5762,6310.037037,170371,BC2.png,soup_t.png,S5.png,S9.png,S6.png,S10.png,S13.png,S3.png,289040
40620,19:29:45,9738,851075623,choice,choice2,0,0,1,28,5633,6285.892857,176005,BC2.png,yog_t.png,Y13.png,Y6.png,Y12.png,Y10.png,Y2.png,Y3.png,295237
40620,19:29:45,9738,851075623,switch,choice2,0,0,1,28,5633,6285.892857,176005,Y13.png,yog_t.png,Y13.png,Y6.png,Y12.png,Y10.png,Y2.png,Y3.png,297630
40620,19:29:45,9738,851075623,choice,choice1,1,0,0,29,6331,6287.482759,182337,Y13.png,sand_t.png,SW6.png,SW9.png,SW8.png,SW7.png,SW1.png,SW11.png,304527
40620,19:29:45,9738,851075623,choice,choice1,1,0,0,30,9085,6380.766667,191423,Y13.png,crisps_t.png,C5.png,C7.png,C3.png,C2.png,C11.png,C12.png,314174
41320,21:09:01,9231,671758523,choice,choice2,0,0,1,1,5319,5320,5320,RM5.png,ready_t.png,RM5.png,RM11.png,RM1.png,RM7.png,RM13.png,RM2.png,55049
41320,21:09:01,9231,671758523,switch,choice2,0,1,1,1,5319,5320,5320,RM5.png,ready_t.png,RM5.png,RM11.png,RM1.png,RM7.png,RM13.png,RM2.png,59984
41320,21:09:01,9231,671758523,choice,choice1,1,1,0,2,5830,5575.5,11151,RM5.png,sand_t.png,SW6.png,SW9.png,SW8.png,SW7.png,SW1.png,SW11.png,66393
41320,21:09:01,9231,671758523,choice,choice6,0,1,1,3,6710,5954,17862,RM5.png,sand_t.png,SW6.png,SW9.png,SW4.png,SW7.png,SW8.png,SW11.png,73673
41320,21:09:01,9231,671758523,switch,choice6,0,1,1,3,6710,5954,17862,SW6.png,sand_t.png,SW6.png,SW9.png,SW4.png,SW7.png,SW8.png,SW11.png,76233
41320,21:09:01,9231,671758523,choice,choice4,0,1,1,4,4156,5504.75,22019,SW6.png,ready_t.png,RM5.png,RM4.png,RM12.png,RM9.png,RM13.png,RM8.png,80968
41320,21:09:01,9231,671758523,switch,choice4,0,0,1,4,4156,5504.75,22019,RM5.png,ready_t.png,RM5.png,RM4.png,RM12.png,RM9.png,RM13.png,RM8.png,83721
41320,21:09:01,9231,671758523,choice,choice3,0,0,1,5,10664,6536.8,32684,RM5.png,soup_t.png,S12.png,S13.png,S9.png,S7.png,S3.png,S4.png,94961
41320,21:09:01,9231,671758523,switch,choice3,0,1,1,5,10664,6536.8,32684,S12.png,soup_t.png,S12.png,S13.png,S9.png,S7.png,S3.png,S4.png,96617
41320,21:09:01,9231,671758523,choice,choice2,0,1,1,6,5452,6356.166667,38137,S12.png,yog_t.png,Y1.png,Y9.png,Y10.png,Y12.png,Y2.png,Y3.png,102649
41320,21:09:01,9231,671758523,switch,choice2,0,1,1,6,5452,6356.166667,38137,Y1.png,yog_t.png,Y1.png,Y9.png,Y10.png,Y12.png,Y2.png,Y3.png,104249
41320,21:09:01,9231,671758523,choice,choice4,0,1,1,7,6812,6421.428571,44950,Y1.png,ready_t.png,RM5.png,RM11.png,RM1.png,RM3.png,RM13.png,RM2.png,111624
41320,21:09:01,9231,671758523,switch,choice4,0,1,1,7,6812,6421.428571,44950,RM5.png,ready_t.png,RM5.png,RM11.png,RM1.png,RM3.png,RM13.png,RM2.png,113185
41320,21:09:01,9231,671758523,choice,choice1,1,1,0,8,1822,5846.625,46773,RM5.png,soup_t.png,S12.png,S5.png,S9.png,S3.png,S6.png,S13.png,115585
41320,21:09:01,9231,671758523,choice,choice1,1,1,0,9,1990,5418.222222,48764,RM5.png,cereal_t.png,BC2.png,BC9.png,BC12.png,BC6.png,BC5.png,BC8.png,118153
41320,21:09:01,9231,671758523,choice,choice2,0,1,1,10,3991,5275.6,52756,RM5.png,sand_t.png,SW6.png,SW11.png,SW10.png,SW7.png,SW1.png,SW8.png,122721
41320,21:09:01,9231,671758523,switch,choice2,0,1,1,10,3991,5275.6,52756,SW6.png,sand_t.png,SW6.png,SW11.png,SW10.png,SW7.png,SW1.png,SW8.png,124465
41320,21:09:01,9231,671758523,choice,choice3,0,1,1,11,4579,5212.363636,57336,SW6.png,soup_t.png,S12.png,S6.png,S9.png,S1.png,S4.png,S3.png,129609
41320,21:09:01,9231,671758523,switch,choice3,0,1,1,11,4579,5212.363636,57336,S12.png,soup_t.png,S12.png,S6.png,S9.png,S1.png,S4.png,S3.png,131648
41320,21:09:01,9231,671758523,choice,choice2,0,1,1,12,4436,5147.75,61773,S12.png,yog_t.png,Y12.png,Y8.png,Y2.png,Y11.png,Y10.png,Y3.png,136649
41320,21:09:01,9231,671758523,switch,choice2,0,1,1,12,4436,5147.75,61773,Y12.png,yog_t.png,Y12.png,Y8.png,Y2.png,Y11.png,Y10.png,Y3.png,138313
41320,21:09:01,9231,671758523,choice,choice2,0,1,1,13,10912,5591.230769,72686,Y12.png,crisps_t.png,C10.png,C4.png,C3.png,C2.png,C9.png,C6.png,149809
41320,21:09:01,9231,671758523,switch,choice2,0,1,1,13,10912,5591.230769,72686,C10.png,crisps_t.png,C10.png,C4.png,C3.png,C2.png,C9.png,C6.png,151369
41320,21:09:01,9231,671758523,choice,choice3,0,1,1,14,5958,5617.5,78645,C10.png,crisps_t.png,C7.png,C4.png,C3.png,C12.png,C6.png,C9.png,157905
41320,21:09:01,9231,671758523,switch,choice3,0,0,1,14,5958,5617.5,78645,C7.png,crisps_t.png,C7.png,C4.png,C3.png,C12.png,C6.png,C9.png,159337
41320,21:09:01,9231,671758523,choice,choice1,1,0,0,15,7800,5763.066667,86446,C7.png,sand_t.png,SW6.png,SW9.png,SW4.png,SW7.png,SW3.png,SW5.png,167713
41320,21:09:01,9231,671758523,breaktime,choice1,1,0,0,15,7800,5763.066667,86446,C7.png,sand_t.png,SW6.png,SW9.png,SW4.png,SW7.png,SW3.png,SW5.png,169352
41320,21:09:01,9231,671758523,choice,choice1,1,0,0,16,14575,6313.875,101022,C7.png,sand_t.png,SW6.png,SW9.png,SW3.png,SW7.png,SW1.png,SW10.png,184505
41320,21:09:01,9231,671758523,choice,choice5,0,0,1,17,9209,6484.235294,110232,C7.png,soup_t.png,S5.png,S9.png,S6.png,S10.png,S13.png,S3.png,194289
41320,21:09:01,9231,671758523,switch,choice5,0,1,1,17,9209,6484.235294,110232,S5.png,soup_t.png,S5.png,S9.png,S6.png,S10.png,S13.png,S3.png,195912
41320,21:09:01,9231,671758523,choice,choice3,0,1,1,18,2489,6262.333333,112722,S5.png,cereal_t.png,BC2.png,BC11.png,BC3.png,BC12.png,BC8.png,BC1.png,198969
41320,21:09:01,9231,671758523,switch,choice3,0,1,1,18,2489,6262.333333,112722,BC2.png,cereal_t.png,BC2.png,BC11.png,BC3.png,BC12.png,BC8.png,BC1.png,200617
41320,21:09:01,9231,671758523,choice,choice1,1,1,0,19,3253,6104,115976,BC2.png,cereal_t.png,BC2.png,BC1.png,BC3.png,BC5.png,BC8.png,BC9.png,204433
41320,21:09:01,9231,671758523,choice,choice1,1,1,0,20,4868,6042.25,120845,BC2.png,crisps_t.png,C10.png,C8.png,C5.png,C9.png,C2.png,C6.png,209881
41320,21:09:01,9231,671758523,choice,choice1,1,1,0,21,2658,5881.142857,123504,BC2.png,soup_t.png,S12.png,S5.png,S9.png,S13.png,S3.png,S7.png,213105
41320,21:09:01,9231,671758523,choice,choice2,0,1,1,22,2929,5747,126434,BC2.png,yog_t.png,Y13.png,Y6.png,Y12.png,Y10.png,Y2.png,Y3.png,216609
41320,21:09:01,9231,671758523,switch,choice2,0,1,1,22,2929,5747,126434,Y13.png,yog_t.png,Y13.png,Y6.png,Y12.png,Y10.png,Y2.png,Y3.png,218025
41320,21:09:01,9231,671758523,choice,choice4,0,1,1,23,2204,5593,128639,Y13.png,ready_t.png,RM5.png,RM4.png,RM11.png,RM9.png,RM2.png,RM12.png,220801
41320,21:09:01,9231,671758523,switch,choice4,0,0,1,23,2204,5593,128639,RM5.png,ready_t.png,RM5.png,RM4.png,RM11.png,RM9.png,RM2.png,RM12.png,222457
41320,21:09:01,9231,671758523,choice,choice1,1,0,0,24,2739,5474.125,131379,RM5.png,crisps_t.png,C10.png,C4.png,C3.png,C6.png,C2.png,C7.png,225769
41320,21:09:01,9231,671758523,choice,choice1,1,0,0,25,10038,5656.72,141418,RM5.png,crisps_t.png,C5.png,C7.png,C3.png,C2.png,C11.png,C12.png,236385
41320,21:09:01,9231,671758523,choice,choice4,0,0,1,26,2189,5523.384615,143608,RM5.png,yog_t.png,Y1.png,Y8.png,Y3.png,Y12.png,Y10.png,Y2.png,239153
41320,21:09:01,9231,671758523,switch,choice4,0,1,1,26,2189,5523.384615,143608,Y1.png,yog_t.png,Y1.png,Y8.png,Y3.png,Y12.png,Y10.png,Y2.png,240569
41320,21:09:01,9231,671758523,choice,choice1,1,1,0,27,4606,5489.444444,148215,Y1.png,cereal_t.png,BC2.png,BC1.png,BC12.png,BC4.png,BC8.png,BC5.png,245753
41320,21:09:01,9231,671758523,choice,choice3,0,1,1,28,3599,5421.964286,151815,Y1.png,crisps_t.png,C10.png,C4.png,C3.png,C6.png,C2.png,C7.png,249929
41320,21:09:01,9231,671758523,switch,choice3,0,1,1,28,3599,5421.964286,151815,C10.png,crisps_t.png,C10.png,C4.png,C3.png,C6.png,C2.png,C7.png,251561
41320,21:09:01,9231,671758523,choice,choice4,0,1,1,29,2055,5305.896552,153871,C10.png,ready_t.png,RM5.png,RM11.png,RM1.png,RM7.png,RM13.png,RM2.png,254185
41320,21:09:01,9231,671758523,switch,choice4,0,0,1,29,2055,5305.896552,153871,RM5.png,ready_t.png,RM5.png,RM11.png,RM1.png,RM7.png,RM13.png,RM2.png,255441
41320,21:09:01,9231,671758523,choice,choice1,1,0,0,30,3244,5237.2,157116,RM5.png,soup_t.png,S12.png,S13.png,S9.png,S7.png,S3.png,S4.png,259257
50120,07:25:25,8864,843668712,choice,choice3,0,0,1,1,22794,22795,22795,RM5.png,ready_t.png,RM5.png,RM11.png,RM1.png,RM8.png,RM13.png,RM2.png,76215
50120,07:25:25,8864,843668712,switch,choice3,0,0,1,1,22794,22795,22795,RM5.png,ready_t.png,RM5.png,RM11.png,RM1.png,RM8.png,RM13.png,RM2.png,83899
50120,07:25:25,8864,843668712,choice,choice2,0,0,1,2,11534,17165,34330,RM5.png,yog_t.png,Y1.png,Y8.png,Y3.png,Y12.png,Y10.png,Y2.png,96055
50120,07:25:25,8864,843668712,switch,choice2,0,1,1,2,11534,17165,34330,Y1.png,yog_t.png,Y1.png,Y8.png,Y3.png,Y12.png,Y10.png,Y2.png,98982
50120,07:25:25,8864,843668712,choice,choice4,0,1,1,3,14888,16406.33333,49219,Y1.png,soup_t.png,S12.png,S6.png,S9.png,S1.png,S4.png,S3.png,114493
50120,07:25:25,8864,843668712,switch,choice4,0,1,1,3,14888,16406.33333,49219,S12.png,soup_t.png,S12.png,S6.png,S9.png,S1.png,S4.png,S3.png,116273
50120,07:25:25,8864,843668712,choice,choice2,0,1,1,4,35422,21160.5,84642,S12.png,crisps_t.png,C10.png,C4.png,C3.png,C6.png,C2.png,C7.png,152333
50120,07:25:25,8864,843668712,switch,choice2,0,0,1,4,35422,21160.5,84642,C10.png,crisps_t.png,C10.png,C4.png,C3.png,C6.png,C2.png,C7.png,154563
50120,07:25:25,8864,843668712,choice,choice3,0,0,1,5,7482,18425,92125,C10.png,crisps_t.png,C10.png,C8.png,C5.png,C9.png,C2.png,C6.png,162670
50120,07:25:25,8864,843668712,switch,choice3,0,0,1,5,7482,18425,92125,C10.png,crisps_t.png,C10.png,C8.png,C5.png,C9.png,C2.png,C6.png,164657
50120,07:25:25,8864,843668712,choice,choice3,0,0,1,6,11114,17206.66667,103240,C10.png,cereal_t.png,BC2.png,BC9.png,BC12.png,BC6.png,BC5.png,BC8.png,176403
50120,07:25:25,8864,843668712,switch,choice3,0,0,1,6,11114,17206.66667,103240,BC2.png,cereal_t.png,BC2.png,BC9.png,BC12.png,BC6.png,BC5.png,BC8.png,181606
50120,07:25:25,8864,843668712,choice,choice4,0,0,1,7,11713,16422,114954,BC2.png,ready_t.png,RM5.png,RM11.png,RM1.png,RM7.png,RM13.png,RM2.png,193935
50120,07:25:25,8864,843668712,switch,choice4,0,0,1,7,11713,16422,114954,RM5.png,ready_t.png,RM5.png,RM11.png,RM1.png,RM7.png,RM13.png,RM2.png,195582
50120,07:25:25,8864,843668712,choice,choice4,0,0,1,8,10466,15677.625,125421,RM5.png,sand_t.png,SW6.png,SW9.png,SW8.png,SW7.png,SW1.png,SW11.png,206670
50120,07:25:25,8864,843668712,switch,choice4,0,0,1,8,10466,15677.625,125421,SW6.png,sand_t.png,SW6.png,SW9.png,SW8.png,SW7.png,SW1.png,SW11.png,207984
50120,07:25:25,8864,843668712,choice,choice3,0,0,1,9,4905,14480.77778,130327,SW6.png,soup_t.png,S12.png,S13.png,S9.png,S7.png,S3.png,S4.png,213509
50120,07:25:25,8864,843668712,switch,choice3,0,0,1,9,4905,14480.77778,130327,S12.png,soup_t.png,S12.png,S13.png,S9.png,S7.png,S3.png,S4.png,214801
50120,07:25:25,8864,843668712,choice,choice3,0,0,1,10,5320,13564.8,135648,S12.png,crisps_t.png,C5.png,C7.png,C3.png,C2.png,C11.png,C12.png,220742
50120,07:25:25,8864,843668712,switch,choice3,0,0,1,10,5320,13564.8,135648,C5.png,crisps_t.png,C5.png,C7.png,C3.png,C2.png,C11.png,C12.png,222935
50120,07:25:25,8864,843668712,choice,choice1,1,0,0,11,3771,12674.54545,139420,C5.png,cereal_t.png,BC2.png,BC1.png,BC3.png,BC5.png,BC8.png,BC9.png,227324
50120,07:25:25,8864,843668712,choice,choice3,0,0,1,12,3311,11894.33333,142732,C5.png,cereal_t.png,BC2.png,BC11.png,BC3.png,BC9.png,BC8.png,BC1.png,231247
50120,07:25:25,8864,843668712,switch,choice3,0,0,1,12,3311,11894.33333,142732,BC2.png,cereal_t.png,BC2.png,BC11.png,BC3.png,BC9.png,BC8.png,BC1.png,233777
50120,07:25:25,8864,843668712,choice,choice4,0,0,1,13,9353,11698.92308,152086,BC2.png,ready_t.png,RM5.png,RM11.png,RM1.png,RM3.png,RM13.png,RM2.png,243758
50120,07:25:25,8864,843668712,switch,choice4,0,0,1,13,9353,11698.92308,152086,RM5.png,ready_t.png,RM5.png,RM11.png,RM1.png,RM3.png,RM13.png,RM2.png,245699
50120,07:25:25,8864,843668712,choice,choice4,0,0,1,14,7713,11414.28571,159800,RM5.png,ready_t.png,RM5.png,RM4.png,RM11.png,RM9.png,RM2.png,RM12.png,254033
50120,07:25:25,8864,843668712,switch,choice4,0,1,1,14,7713,11414.28571,159800,RM5.png,ready_t.png,RM5.png,RM4.png,RM11.png,RM9.png,RM2.png,RM12.png,255605
50120,07:25:25,8864,843668712,choice,choice4,0,1,1,15,5166,10997.8,164967,RM5.png,cereal_t.png,BC2.png,BC11.png,BC3.png,BC12.png,BC8.png,BC1.png,261386
50120,07:25:25,8864,843668712,switch,choice4,0,0,1,15,5166,10997.8,164967,BC2.png,cereal_t.png,BC2.png,BC11.png,BC3.png,BC12.png,BC8.png,BC1.png,262727
50120,07:25:25,8864,843668712,breaktime,choice4,0,0,1,15,5166,10997.8,164967,BC2.png,cereal_t.png,BC2.png,BC11.png,BC3.png,BC12.png,BC8.png,BC1.png,2219084
50120,07:25:25,8864,843668712,choice,choice3,0,0,1,16,5540,10656.75,170508,BC2.png,crisps_t.png,C10.png,C4.png,C3.png,C2.png,C9.png,C6.png,2225264
50120,07:25:25,8864,843668712,switch,choice3,0,0,1,16,5540,10656.75,170508,C10.png,crisps_t.png,C10.png,C4.png,C3.png,C2.png,C9.png,C6.png,2228095
50120,07:25:25,8864,843668712,choice,choice4,0,0,1,17,3049,10209.29412,173558,C10.png,ready_t.png,RM5.png,RM4.png,RM12.png,RM9.png,RM13.png,RM8.png,2231787
50120,07:25:25,8864,843668712,switch,choice4,0,0,1,17,3049,10209.29412,173558,RM5.png,ready_t.png,RM5.png,RM4.png,RM12.png,RM9.png,RM13.png,RM8.png,2233087
50120,07:25:25,8864,843668712,choice,choice4,0,0,1,18,3051,9811.666667,176610,RM5.png,sand_t.png,SW6.png,SW9.png,SW4.png,SW7.png,SW8.png,SW11.png,2236756
50120,07:25:25,8864,843668712,switch,choice4,0,0,1,18,3051,9811.666667,176610,SW6.png,sand_t.png,SW6.png,SW9.png,SW4.png,SW7.png,SW8.png,SW11.png,2237967
50120,07:25:25,8864,843668712,choice,choice3,0,0,1,19,5304,9574.473684,181915,SW6.png,crisps_t.png,C7.png,C4.png,C3.png,C12.png,C6.png,C9.png,2243894
50120,07:25:25,8864,843668712,switch,choice3,0,0,1,19,5304,9574.473684,181915,C7.png,crisps_t.png,C7.png,C4.png,C3.png,C12.png,C6.png,C9.png,2245200
50120,07:25:25,8864,843668712,choice,choice2,0,0,1,20,15143,9852.95,197059,C7.png,yog_t.png,Y13.png,Y6.png,Y12.png,Y10.png,Y2.png,Y3.png,2260966
50120,07:25:25,8864,843668712,switch,choice2,0,0,1,20,15143,9852.95,197059,Y13.png,yog_t.png,Y13.png,Y6.png,Y12.png,Y10.png,Y2.png,Y3.png,2265931
50120,07:25:25,8864,843668712,choice,choice2,0,0,1,21,11126,9913.619048,208186,Y13.png,yog_t.png,Y1.png,Y9.png,Y10.png,Y12.png,Y2.png,Y3.png,2277683
50120,07:25:25,8864,843668712,switch,choice2,0,0,1,21,11126,9913.619048,208186,Y1.png,yog_t.png,Y1.png,Y9.png,Y10.png,Y12.png,Y2.png,Y3.png,2280169
50120,07:25:25,8864,843668712,choice,choice2,0,0,1,22,11919,10004.81818,220106,Y1.png,yog_t.png,Y12.png,Y8.png,Y2.png,Y11.png,Y10.png,Y3.png,2292709
50120,07:25:25,8864,843668712,switch,choice2,0,0,1,22,11919,10004.81818,220106,Y12.png,yog_t.png,Y12.png,Y8.png,Y2.png,Y11.png,Y10.png,Y3.png,2294196
50120,07:25:25,8864,843668712,choice,choice2,0,0,1,23,3915,9740.086957,224022,Y12.png,soup_t.png,S5.png,S9.png,S6.png,S10.png,S13.png,S3.png,2298737
50120,07:25:25,8864,843668712,switch,choice2,0,0,1,23,3915,9740.086957,224022,S5.png,soup_t.png,S5.png,S9.png,S6.png,S10.png,S13.png,S3.png,2300510
50120,07:25:25,8864,843668712,choice,choice3,0,0,1,24,6895,9621.583333,230918,S5.png,soup_t.png,S12.png,S5.png,S9.png,S13.png,S3.png,S7.png,2308036
50120,07:25:25,8864,843668712,switch,choice3,0,0,1,24,6895,9621.583333,230918,S12.png,soup_t.png,S12.png,S5.png,S9.png,S13.png,S3.png,S7.png,2309454
50120,07:25:25,8864,843668712,choice,choice4,0,0,1,25,11327,9689.84,242246,S12.png,sand_t.png,SW6.png,SW11.png,SW10.png,SW7.png,SW1.png,SW8.png,2321399
50120,07:25:25,8864,843668712,switch,choice4,0,0,1,25,11327,9689.84,242246,SW6.png,sand_t.png,SW6.png,SW11.png,SW10.png,SW7.png,SW1.png,SW8.png,2322911
50120,07:25:25,8864,843668712,choice,choice1,1,0,0,26,3222,9441.115385,245469,SW6.png,cereal_t.png,BC2.png,BC1.png,BC12.png,BC4.png,BC8.png,BC5.png,2326777
50120,07:25:25,8864,843668712,choice,choice3,0,0,1,27,13490,9591.111111,258960,SW6.png,sand_t.png,SW6.png,SW9.png,SW4.png,SW7.png,SW3.png,SW5.png,2340897
50120,07:25:25,8864,843668712,switch,choice3,0,0,1,27,13490,9591.111111,258960,SW6.png,sand_t.png,SW6.png,SW9.png,SW4.png,SW7.png,SW3.png,SW5.png,2344270
50120,07:25:25,8864,843668712,choice,choice2,0,0,1,28,4196,9398.464286,263157,SW6.png,yog_t.png,Y4.png,Y8.png,Y3.png,Y2.png,Y10.png,Y11.png,2349084
50120,07:25:25,8864,843668712,switch,choice2,0,0,1,28,4196,9398.464286,263157,Y4.png,yog_t.png,Y4.png,Y8.png,Y3.png,Y2.png,Y10.png,Y11.png,2352288
50120,07:25:25,8864,843668712,choice,choice2,0,0,1,29,5596,9267.37931,268754,Y4.png,soup_t.png,S12.png,S5.png,S9.png,S13.png,S3.png,S7.png,2358503
50120,07:25:25,8864,843668712,switch,choice2,0,0,1,29,5596,9267.37931,268754,S12.png,soup_t.png,S12.png,S5.png,S9.png,S13.png,S3.png,S7.png,2360315
50120,07:25:25,8864,843668712,choice,choice3,0,0,1,30,3443,9073.266667,272198,S12.png,soup_t.png,S12.png,S13.png,S9.png,S7.png,S3.png,S4.png,2364383
50120,07:25:25,8864,843668712,switch,choice3,0,0,1,30,3443,9073.266667,272198,S12.png,soup_t.png,S12.png,S13.png,S9.png,S7.png,S3.png,S4.png,2366167