date,time,subject,group,trialcode,trial.choice.response,trial.choice.correct,values.switch,values.subopt,values.trial_num,trial.choice.latency,expressions.mean_rt,values.rt,picture.switch.currentitem,picture.foodtype.currentitem,picture.choice1.currentitem,picture.choice2.currentitem,picture.choice3.currentitem,picture.choice4.currentitem,picture.choice5.currentitem,picture.choice6.currentitem,script.elapsedtime
21020,15:33:43,9817,61616199,choice,choice4,0,0,1,1,15505,15506,15506,RM1.png,ready_t.png,RM1.png,RM11.png,RM5.png,RM7.png,RM13.png,RM2.png,71606
21020,15:33:43,9817,61616199,switch,choice4,0,0,1,1,15505,15506,15506,RM1.png,ready_t.png,RM1.png,RM11.png,RM5.png,RM7.png,RM13.png,RM2.png,75483
21020,15:33:43,9817,61616199,choice,choice3,0,0,1,2,14147,14827,29654,RM1.png,crisps_t.png,C4.png,C10.png,C3.png,C2.png,C9.png,C6.png,90264
21020,15:33:43,9817,61616199,switch,choice3,0,1,1,2,14147,14827,29654,C4.png,crisps_t.png,C4.png,C10.png,C3.png,C2.png,C9.png,C6.png,95010
21020,15:33:43,9817,61616199,choice,choice1,1,1,0,3,13868,14507.66667,43523,C4.png,soup_t.png,S5.png,S12.png,S9.png,S13.png,S3.png,S7.png,109504
21020,15:33:43,9817,61616199,choice,choice4,0,1,1,4,8826,13087.5,52350,C4.png,ready_t.png,RM11.png,RM4.png,RM5.png,RM9.png,RM2.png,RM12.png,118945
21020,15:33:43,9817,61616199,switch,choice4,0,0,1,4,8826,13087.5,52350,RM11.png,ready_t.png,RM11.png,RM4.png,RM5.png,RM9.png,RM2.png,RM12.png,121111
21020,15:33:43,9817,61616199,choice,choice2,0,0,1,5,6175,11705.2,58526,RM11.png,soup_t.png,S5.png,S9.png,S6.png,S10.png,S13.png,S3.png,127911
21020,15:33:43,9817,61616199,switch,choice2,0,0,1,5,6175,11705.2,58526,S5.png,soup_t.png,S5.png,S9.png,S6.png,S10.png,S13.png,S3.png,129620
21020,15:33:43,9817,61616199,choice,choice2,0,0,1,6,7457,10997.33333,65984,S5.png,ready_t.png,RM1.png,RM11.png,RM5.png,RM3.png,RM13.png,RM2.png,137695
21020,15:33:43,9817,61616199,switch,choice2,0,0,1,6,7457,10997.33333,65984,RM1.png,ready_t.png,RM1.png,RM11.png,RM5.png,RM3.png,RM13.png,RM2.png,139336
21020,15:33:43,9817,61616199,choice,choice3,0,0,1,7,5124,10158.42857,71109,RM1.png,sand_t.png,SW4.png,SW9.png,SW6.png,SW7.png,SW3.png,SW5.png,145096
21020,15:33:43,9817,61616199,switch,choice3,0,0,1,7,5124,10158.42857,71109,SW4.png,sand_t.png,SW4.png,SW9.png,SW6.png,SW7.png,SW3.png,SW5.png,147254
21020,15:33:43,9817,61616199,choice,choice3,0,0,1,8,3943,9381.625,75053,SW4.png,sand_t.png,SW3.png,SW9.png,SW6.png,SW7.png,SW1.png,SW10.png,151815
21020,15:33:43,9817,61616199,switch,choice3,0,0,1,8,3943,9381.625,75053,SW3.png,sand_t.png,SW3.png,SW9.png,SW6.png,SW7.png,SW1.png,SW10.png,153177
21020,15:33:43,9817,61616199,choice,choice3,0,0,1,9,7347,9155.666667,82401,SW3.png,cereal_t.png,BC12.png,BC9.png,BC2.png,BC6.png,BC5.png,BC8.png,161169
21020,15:33:43,9817,61616199,switch,choice3,0,0,1,9,7347,9155.666667,82401,BC12.png,cereal_t.png,BC12.png,BC9.png,BC2.png,BC6.png,BC5.png,BC8.png,162968
21020,15:33:43,9817,61616199,choice,choice1,1,0,0,10,5232,8763.4,87634,BC12.png,cereal_t.png,BC3.png,BC11.png,BC2.png,BC9.png,BC8.png,BC1.png,168822
21020,15:33:43,9817,61616199,choice,choice1,1,0,0,11,5845,8498.181818,93480,BC12.png,yog_t.png,Y8.png,Y1.png,Y3.png,Y12.png,Y10.png,Y2.png,175285
21020,15:33:43,9817,61616199,choice,choice3,0,0,1,12,5882,8280.25,99363,BC12.png,soup_t.png,S13.png,S12.png,S9.png,S7.png,S3.png,S4.png,181789
21020,15:33:43,9817,61616199,switch,choice3,0,1,1,12,5882,8280.25,99363,S13.png,soup_t.png,S13.png,S12.png,S9.png,S7.png,S3.png,S4.png,183455
21020,15:33:43,9817,61616199,choice,choice2,0,1,1,13,4490,7988.769231,103854,S13.png,yog_t.png,Y8.png,Y4.png,Y3.png,Y2.png,Y10.png,Y11.png,188565
21020,15:33:43,9817,61616199,switch,choice2,0,1,1,13,4490,7988.769231,103854,Y8.png,yog_t.png,Y8.png,Y4.png,Y3.png,Y2.png,Y10.png,Y11.png,190090
21020,15:33:43,9817,61616199,choice,choice4,0,1,1,14,2310,7583.214286,106165,Y8.png,ready_t.png,RM12.png,RM4.png,RM5.png,RM9.png,RM13.png,RM8.png,193018
21020,15:33:43,9817,61616199,switch,choice4,0,0,1,14,2310,7583.214286,106165,RM12.png,ready_t.png,RM12.png,RM4.png,RM5.png,RM9.png,RM13.png,RM8.png,194181
21020,15:33:43,9817,61616199,choice,choice1,1,0,0,15,5343,7433.933333,111509,RM12.png,crisps_t.png,C4.png,C7.png,C3.png,C12.png,C6.png,C9.png,200150
21020,15:33:43,9817,61616199,breaktime,choice1,1,0,0,15,5343,7433.933333,111509,RM12.png,crisps_t.png,C4.png,C7.png,C3.png,C12.png,C6.png,C9.png,201867
21020,15:33:43,9817,61616199,choice,choice5,0,0,1,16,11854,7710.25,123364,RM12.png,sand_t.png,SW4.png,SW9.png,SW6.png,SW7.png,SW8.png,SW11.png,214346
21020,15:33:43,9817,61616199,switch,choice5,0,0,1,16,11854,7710.25,123364,SW4.png,sand_t.png,SW4.png,SW9.png,SW6.png,SW7.png,SW8.png,SW11.png,215543
21020,15:33:43,9817,61616199,choice,choice4,0,0,1,17,4398,7515.470588,127763,SW4.png,ready_t.png,RM1.png,RM11.png,RM5.png,RM8.png,RM13.png,RM2.png,220557
21020,15:33:43,9817,61616199,switch,choice4,0,0,1,17,4398,7515.470588,127763,RM1.png,ready_t.png,RM1.png,RM11.png,RM5.png,RM8.png,RM13.png,RM2.png,221639
21020,15:33:43,9817,61616199,choice,choice1,1,0,0,18,1954,7206.555556,129718,RM1.png,soup_t.png,S5.png,S12.png,S9.png,S3.png,S6.png,S13.png,224215
21020,15:33:43,9817,61616199,choice,choice1,1,0,0,19,3872,7031.105263,133591,RM1.png,cereal_t.png,BC3.png,BC1.png,BC2.png,BC5.png,BC8.png,BC9.png,228716
21020,15:33:43,9817,61616199,choice,choice2,0,0,1,20,4292,6894.2,137884,RM1.png,crisps_t.png,C7.png,C5.png,C3.png,C2.png,C11.png,C12.png,233637
21020,15:33:43,9817,61616199,switch,choice2,0,0,1,20,4292,6894.2,137884,C7.png,crisps_t.png,C7.png,C5.png,C3.png,C2.png,C11.png,C12.png,236477
21020,15:33:43,9817,61616199,choice,choice2,0,0,1,21,6596,6880.047619,144481,C7.png,yog_t.png,Y6.png,Y13.png,Y12.png,Y10.png,Y2.png,Y3.png,243690
21020,15:33:43,9817,61616199,switch,choice2,0,0,1,21,6596,6880.047619,144481,Y6.png,yog_t.png,Y6.png,Y13.png,Y12.png,Y10.png,Y2.png,Y3.png,245243
21020,15:33:43,9817,61616199,choice,choice1,1,0,0,22,3311,6717.863636,147793,Y6.png,yog_t.png,Y9.png,Y1.png,Y10.png,Y12.png,Y2.png,Y3.png,249173
21020,15:33:43,9817,61616199,choice,choice3,0,0,1,23,4333,6614.217391,152127,Y6.png,crisps_t.png,C8.png,C10.png,C5.png,C9.png,C2.png,C6.png,254129
21020,15:33:43,9817,61616199,switch,choice3,0,0,1,23,4333,6614.217391,152127,C8.png,crisps_t.png,C8.png,C10.png,C5.png,C9.png,C2.png,C6.png,255234
21020,15:33:43,9817,61616199,choice,choice1,1,0,0,24,2405,6438.875,154533,C8.png,yog_t.png,Y8.png,Y12.png,Y2.png,Y11.png,Y10.png,Y3.png,258268
21020,15:33:43,9817,61616199,choice,choice6,0,0,1,25,7502,6481.44,162036,C8.png,sand_t.png,SW8.png,SW9.png,SW6.png,SW7.png,SW1.png,SW11.png,266414
21020,15:33:43,9817,61616199,switch,choice6,0,0,1,25,7502,6481.44,162036,SW8.png,sand_t.png,SW8.png,SW9.png,SW6.png,SW7.png,SW1.png,SW11.png,267792
21020,15:33:43,9817,61616199,choice,choice1,1,0,0,26,4319,6398.307692,166356,SW8.png,cereal_t.png,BC12.png,BC1.png,BC2.png,BC4.png,BC8.png,BC5.png,272749
21020,15:33:43,9817,61616199,choice,choice1,1,0,0,27,4452,6326.259259,170809,SW8.png,cereal_t.png,BC3.png,BC11.png,BC2.png,BC12.png,BC8.png,BC1.png,277816
21020,15:33:43,9817,61616199,choice,choice3,0,0,1,28,4834,6273,175644,SW8.png,sand_t.png,SW3.png,SW9.png,SW6.png,SW7.png,SW1.png,SW10.png,283265
21020,15:33:43,9817,61616199,switch,choice3,0,0,1,28,4834,6273,175644,SW3.png,sand_t.png,SW3.png,SW9.png,SW6.png,SW7.png,SW1.png,SW10.png,284394
21020,15:33:43,9817,61616199,choice,choice4,0,0,1,29,3647,6182.482759,179292,SW3.png,ready_t.png,RM11.png,RM4.png,RM5.png,RM9.png,RM2.png,RM12.png,288661
21020,15:33:43,9817,61616199,switch,choice4,0,0,1,29,3647,6182.482759,179292,RM11.png,ready_t.png,RM11.png,RM4.png,RM5.png,RM9.png,RM2.png,RM12.png,290223
21020,15:33:43,9817,61616199,choice,choice6,0,0,1,30,3090,6079.433333,182383,RM11.png,sand_t.png,SW8.png,SW9.png,SW6.png,SW7.png,SW1.png,SW11.png,293938
21020,15:33:43,9817,61616199,switch,choice6,0,0,1,30,3090,6079.433333,182383,SW8.png,sand_t.png,SW8.png,SW9.png,SW6.png,SW7.png,SW1.png,SW11.png,295088
21020,16:43:21,8770,938204254,choice,choice2,0,0,1,1,6396,6397,6397,RM1.png,ready_t.png,RM1.png,RM11.png,RM5.png,RM3.png,RM13.png,RM2.png,90596
21020,16:43:21,8770,938204254,switch,choice2,0,1,1,1,6396,6397,6397,RM1.png,ready_t.png,RM1.png,RM11.png,RM5.png,RM3.png,RM13.png,RM2.png,101713
21020,16:43:21,8770,938204254,choice,choice1,1,1,0,2,5307,5852.5,11705,RM1.png,yog_t.png,Y6.png,Y13.png,Y12.png,Y10.png,Y2.png,Y3.png,107658
21020,16:43:21,8770,938204254,choice,choice1,1,1,0,3,13350,8352,25056,RM1.png,yog_t.png,Y8.png,Y1.png,Y3.png,Y12.png,Y10.png,Y2.png,121636
21020,16:43:21,8770,938204254,choice,choice1,1,1,0,4,14944,10000.25,40001,RM1.png,soup_t.png,S5.png,S12.png,S9.png,S3.png,S6.png,S13.png,137197
21020,16:43:21,8770,938204254,choice,choice3,0,1,1,5,13597,10719.8,53599,RM1.png,sand_t.png,SW8.png,SW9.png,SW6.png,SW7.png,SW1.png,SW11.png,151418
21020,16:43:21,8770,938204254,switch,choice3,0,0,1,5,13597,10719.8,53599,SW8.png,sand_t.png,SW8.png,SW9.png,SW6.png,SW7.png,SW1.png,SW11.png,158761
21020,16:43:21,8770,938204254,choice,choice1,1,0,0,6,7583,10197.16667,61183,SW8.png,yog_t.png,Y8.png,Y12.png,Y2.png,Y11.png,Y10.png,Y3.png,166972
21020,16:43:21,8770,938204254,choice,choice1,1,0,0,7,16703,11126.71429,77887,SW8.png,crisps_t.png,C4.png,C7.png,C3.png,C12.png,C6.png,C9.png,184293
21020,16:43:21,8770,938204254,choice,choice4,0,0,1,8,8531,10802.375,86419,SW8.png,ready_t.png,RM11.png,RM4.png,RM5.png,RM9.png,RM2.png,RM12.png,193455
21020,16:43:21,8770,938204254,switch,choice4,0,0,1,8,8531,10802.375,86419,RM11.png,ready_t.png,RM11.png,RM4.png,RM5.png,RM9.png,RM2.png,RM12.png,196491
21020,16:43:21,8770,938204254,choice,choice3,0,0,1,9,9015,10603.88889,95435,RM11.png,soup_t.png,S6.png,S12.png,S9.png,S1.png,S4.png,S3.png,206141
21020,16:43:21,8770,938204254,switch,choice3,0,0,1,9,9015,10603.88889,95435,S6.png,soup_t.png,S6.png,S12.png,S9.png,S1.png,S4.png,S3.png,208416
21020,16:43:21,8770,938204254,choice,choice3,0,0,1,10,7815,10325.1,103251,S6.png,cereal_t.png,BC12.png,BC9.png,BC2.png,BC6.png,BC5.png,BC8.png,216858
21020,16:43:21,8770,938204254,switch,choice3,0,0,1,10,7815,10325.1,103251,BC12.png,cereal_t.png,BC12.png,BC9.png,BC2.png,BC6.png,BC5.png,BC8.png,221483
21020,16:43:21,8770,938204254,choice,choice1,1,0,0,11,5977,9929.909091,109229,BC12.png,yog_t.png,Y9.png,Y1.png,Y10.png,Y12.png,Y2.png,Y3.png,228070
21020,16:43:21,8770,938204254,choice,choice1,1,0,0,12,5555,9565.416667,114785,BC12.png,cereal_t.png,BC3.png,BC1.png,BC2.png,BC5.png,BC8.png,BC9.png,234249
21020,16:43:21,8770,938204254,choice,choice3,0,0,1,13,13523,9869.923077,128309,BC12.png,crisps_t.png,C8.png,C10.png,C5.png,C9.png,C2.png,C6.png,248418
21020,16:43:21,8770,938204254,switch,choice3,0,0,1,13,13523,9869.923077,128309,C8.png,crisps_t.png,C8.png,C10.png,C5.png,C9.png,C2.png,C6.png,250365
21020,16:43:21,8770,938204254,choice,choice3,0,0,1,14,4183,9463.785714,132493,C8.png,cereal_t.png,BC3.png,BC11.png,BC2.png,BC12.png,BC8.png,BC1.png,255161
21020,16:43:21,8770,938204254,switch,choice3,0,1,1,14,4183,9463.785714,132493,BC3.png,cereal_t.png,BC3.png,BC11.png,BC2.png,BC12.png,BC8.png,BC1.png,257412
21020,16:43:21,8770,938204254,choice,choice4,0,1,1,15,4306,9120,136800,BC3.png,ready_t.png,RM12.png,RM4.png,RM5.png,RM9.png,RM13.png,RM8.png,262353
21020,16:43:21,8770,938204254,switch,choice4,0,0,1,15,4306,9120,136800,RM12.png,ready_t.png,RM12.png,RM4.png,RM5.png,RM9.png,RM13.png,RM8.png,264039
21020,16:43:21,8770,938204254,breaktime,choice4,0,0,1,15,4306,9120,136800,RM12.png,ready_t.png,RM12.png,RM4.png,RM5.png,RM9.png,RM13.png,RM8.png,271168
21020,16:43:21,8770,938204254,choice,choice3,0,0,1,16,9435,9139.75,146236,RM12.png,sand_t.png,SW4.png,SW9.png,SW6.png,SW7.png,SW3.png,SW5.png,281232
21020,16:43:21,8770,938204254,switch,choice3,0,0,1,16,9435,9139.75,146236,SW4.png,sand_t.png,SW4.png,SW9.png,SW6.png,SW7.png,SW3.png,SW5.png,282906
21020,16:43:21,8770,938204254,choice,choice3,0,0,1,17,8921,9126.941176,155158,SW4.png,soup_t.png,S13.png,S12.png,S9.png,S7.png,S3.png,S4.png,292453
21020,16:43:21,8770,938204254,switch,choice3,0,0,1,17,8921,9126.941176,155158,S13.png,soup_t.png,S13.png,S12.png,S9.png,S7.png,S3.png,S4.png,294670
21020,16:43:21,8770,938204254,choice,choice4,0,0,1,18,12213,9298.444444,167372,S13.png,ready_t.png,RM1.png,RM11.png,RM5.png,RM8.png,RM13.png,RM2.png,307495
21020,16:43:21,8770,938204254,switch,choice4,0,0,1,18,12213,9298.444444,167372,RM1.png,ready_t.png,RM1.png,RM11.png,RM5.png,RM8.png,RM13.png,RM2.png,310488
21020,16:43:21,8770,938204254,choice,choice1,1,0,0,19,11173,9397.157895,178546,RM1.png,soup_t.png,S5.png,S9.png,S6.png,S10.png,S13.png,S3.png,322289
21020,16:43:21,8770,938204254,choice,choice2,0,0,1,20,13493,9602,192040,RM1.png,crisps_t.png,C4.png,C10.png,C3.png,C2.png,C9.png,C6.png,336410
21020,16:43:21,8770,938204254,switch,choice2,0,0,1,20,13493,9602,192040,C4.png,crisps_t.png,C4.png,C10.png,C3.png,C2.png,C9.png,C6.png,338057
21020,16:43:21,8770,938204254,choice,choice3,0,0,1,21,12191,9725.333333,204232,C4.png,sand_t.png,SW10.png,SW11.png,SW6.png,SW7.png,SW1.png,SW8.png,350876
21020,16:43:21,8770,938204254,switch,choice3,0,0,1,21,12191,9725.333333,204232,SW10.png,sand_t.png,SW10.png,SW11.png,SW6.png,SW7.png,SW1.png,SW8.png,352318
21020,16:43:21,8770,938204254,choice,choice2,0,0,1,22,6341,9571.545455,210574,SW10.png,crisps_t.png,C7.png,C5.png,C3.png,C2.png,C11.png,C12.png,359276
21020,16:43:21,8770,938204254,switch,choice2,0,0,1,22,6341,9571.545455,210574,C7.png,crisps_t.png,C7.png,C5.png,C3.png,C2.png,C11.png,C12.png,360685
21020,16:43:21,8770,938204254,choice,choice3,0,0,1,23,10460,9610.217391,221035,C7.png,cereal_t.png,BC12.png,BC1.png,BC2.png,BC4.png,BC8.png,BC5.png,371764
21020,16:43:21,8770,938204254,switch,choice3,0,0,1,23,10460,9610.217391,221035,BC12.png,cereal_t.png,BC12.png,BC1.png,BC2.png,BC4.png,BC8.png,BC5.png,373414
21020,16:43:21,8770,938204254,choice,choice3,0,0,1,24,5331,9431.958333,226367,BC12.png,sand_t.png,SW3.png,SW9.png,SW6.png,SW7.png,SW1.png,SW10.png,379367
21020,16:43:21,8770,938204254,switch,choice3,0,0,1,24,5331,9431.958333,226367,SW3.png,sand_t.png,SW3.png,SW9.png,SW6.png,SW7.png,SW1.png,SW10.png,380689
21020,16:43:21,8770,938204254,choice,choice1,1,0,0,25,10162,9461.2,236530,SW3.png,cereal_t.png,BC3.png,BC11.png,BC2.png,BC9.png,BC8.png,BC1.png,391466
21020,16:43:21,8770,938204254,choice,choice4,0,0,1,26,6734,9356.346154,243265,SW3.png,ready_t.png,RM1.png,RM11.png,RM5.png,RM7.png,RM13.png,RM2.png,398822
21020,16:43:21,8770,938204254,switch,choice4,0,0,1,26,6734,9356.346154,243265,RM1.png,ready_t.png,RM1.png,RM11.png,RM5.png,RM7.png,RM13.png,RM2.png,400421
21020,16:43:21,8770,938204254,choice,choice1,1,0,0,27,14283,9538.851852,257549,RM1.png,yog_t.png,Y8.png,Y4.png,Y3.png,Y2.png,Y10.png,Y11.png,415322
21020,16:43:21,8770,938204254,choice,choice1,1,0,0,28,7745,9474.821429,265295,RM1.png,yog_t.png,Y8.png,Y1.png,Y3.png,Y12.png,Y10.png,Y2.png,423686
21020,16:43:21,8770,938204254,choice,choice3,0,0,1,29,10742,9518.551724,276038,RM1.png,soup_t.png,S6.png,S12.png,S9.png,S1.png,S4.png,S3.png,435048
21020,16:43:21,8770,938204254,switch,choice3,0,0,1,29,10742,9518.551724,276038,S6.png,soup_t.png,S6.png,S12.png,S9.png,S1.png,S4.png,S3.png,436554
21020,16:43:21,8770,938204254,choice,choice3,0,0,1,30,11182,9574.033333,287221,S6.png,soup_t.png,S13.png,S12.png,S9.png,S7.png,S3.png,S4.png,448357
21020,16:43:21,8770,938204254,switch,choice3,0,0,1,30,11182,9574.033333,287221,S13.png,soup_t.png,S13.png,S12.png,S9.png,S7.png,S3.png,S4.png,449665
21120,23:57:39,8855,819128864,choice,choice4,0,0,1,1,36328,36329,36329,RM1.png,sand_t.png,SW10.png,SW11.png,SW6.png,SW7.png,SW1.png,SW8.png,480698
21120,23:57:39,8855,819128864,switch,choice4,0,0,1,1,36328,36329,36329,SW10.png,sand_t.png,SW10.png,SW11.png,SW6.png,SW7.png,SW1.png,SW8.png,488039
21120,23:57:39,8855,819128864,choice,choice1,1,0,0,2,39607,37968.5,75937,SW10.png,cereal_t.png,BC12.png,BC1.png,BC2.png,BC4.png,BC8.png,BC5.png,528293
21120,23:57:39,8855,819128864,choice,choice1,1,0,0,3,65610,47182.66667,141548,SW10.png,soup_t.png,S5.png,S12.png,S9.png,S3.png,S6.png,S13.png,594558
21120,23:57:39,8855,819128864,choice,choice4,0,0,1,4,37221,44692.5,178770,SW10.png,ready_t.png,RM1.png,RM11.png,RM5.png,RM3.png,RM13.png,RM2.png,632419
21120,23:57:39,8855,819128864,switch,choice4,0,0,1,4,37221,44692.5,178770,RM1.png,ready_t.png,RM1.png,RM11.png,RM5.png,RM3.png,RM13.png,RM2.png,636880
21120,23:57:39,8855,819128864,choice,choice1,1,0,0,5,40934,43941,219705,RM1.png,cereal_t.png,BC3.png,BC11.png,BC2.png,BC9.png,BC8.png,BC1.png,678449
21120,23:57:39,8855,819128864,choice,choice2,0,0,1,6,45021,44121.16667,264727,RM1.png,crisps_t.png,C7.png,C5.png,C3.png,C2.png,C11.png,C12.png,724136
21120,23:57:39,8855,819128864,switch,choice2,0,0,1,6,45021,44121.16667,264727,C7.png,crisps_t.png,C7.png,C5.png,C3.png,C2.png,C11.png,C12.png,727895
21120,23:57:39,8855,819128864,choice,choice3,0,0,1,7,92599,51046.71429,357327,C7.png,sand_t.png,SW8.png,SW9.png,SW6.png,SW7.png,SW1.png,SW11.png,821115
21120,23:57:39,8855,819128864,switch,choice3,0,0,1,7,92599,51046.71429,357327,SW8.png,sand_t.png,SW8.png,SW9.png,SW6.png,SW7.png,SW1.png,SW11.png,831150
21120,23:57:39,8855,819128864,choice,choice1,1,0,0,8,36455,49222.875,393783,SW8.png,crisps_t.png,C4.png,C7.png,C3.png,C12.png,C6.png,C9.png,868254
21120,23:57:39,8855,819128864,choice,choice2,0,0,1,9,64381,50907.22222,458165,SW8.png,ready_t.png,RM1.png,RM11.png,RM5.png,RM8.png,RM13.png,RM2.png,933280
21120,23:57:39,8855,819128864,switch,choice2,0,1,1,9,64381,50907.22222,458165,RM1.png,ready_t.png,RM1.png,RM11.png,RM5.png,RM8.png,RM13.png,RM2.png,947897
21120,23:57:39,8855,819128864,choice,choice1,1,1,0,10,31133,48929.9,489299,RM1.png,crisps_t.png,C4.png,C10.png,C3.png,C2.png,C9.png,C6.png,979651
21120,23:57:39,8855,819128864,choice,choice1,1,1,0,11,48362,48878.36364,537662,RM1.png,yog_t.png,Y6.png,Y13.png,Y12.png,Y10.png,Y2.png,Y3.png,1028661
21120,23:57:39,8855,819128864,choice,choice3,0,1,1,12,17026,46224.08333,554689,RM1.png,soup_t.png,S5.png,S12.png,S9.png,S13.png,S3.png,S7.png,1046309
21120,23:57:39,8855,819128864,switch,choice3,0,0,1,12,17026,46224.08333,554689,S5.png,soup_t.png,S5.png,S12.png,S9.png,S13.png,S3.png,S7.png,1062891
21120,23:57:39,8855,819128864,choice,choice1,1,0,0,13,55515,46938.84615,610205,S5.png,sand_t.png,SW4.png,SW9.png,SW6.png,SW7.png,SW8.png,SW11.png,1119033
21120,23:57:39,8855,819128864,choice,choice1,1,0,0,14,27795,45571.5,638001,S5.png,cereal_t.png,BC12.png,BC9.png,BC2.png,BC6.png,BC5.png,BC8.png,1147462
21120,23:57:39,8855,819128864,choice,choice1,1,0,0,15,16055,43603.8,654057,S5.png,yog_t.png,Y8.png,Y12.png,Y2.png,Y11.png,Y10.png,Y3.png,1164138
21120,23:57:39,8855,819128864,breaktime,choice1,1,0,0,15,16055,43603.8,654057,S5.png,yog_t.png,Y8.png,Y12.png,Y2.png,Y11.png,Y10.png,Y3.png,1167725
21120,23:57:39,8855,819128864,choice,choice1,1,0,0,16,28121,42636.1875,682179,S5.png,yog_t.png,Y8.png,Y1.png,Y3.png,Y12.png,Y10.png,Y2.png,1196455
21120,23:57:39,8855,819128864,choice,choice3,0,0,1,17,62088,43780.47059,744268,S5.png,soup_t.png,S13.png,S12.png,S9.png,S7.png,S3.png,S4.png,1259172
21120,23:57:39,8855,819128864,switch,choice3,0,0,1,17,62088,43780.47059,744268,S13.png,soup_t.png,S13.png,S12.png,S9.png,S7.png,S3.png,S4.png,1269082
21120,23:57:39,8855,819128864,choice,choice1,1,0,0,18,30282,43030.61111,774551,S13.png,yog_t.png,Y8.png,Y4.png,Y3.png,Y2.png,Y10.png,Y11.png,1299967
21120,23:57:39,8855,819128864,choice,choice4,0,0,1,19,124391,47312.78947,898943,S13.png,ready_t.png,RM1.png,RM11.png,RM5.png,RM7.png,RM13.png,RM2.png,1424959
21120,23:57:39,8855,819128864,switch,choice4,0,0,1,19,124391,47312.78947,898943,RM1.png,ready_t.png,RM1.png,RM11.png,RM5.png,RM7.png,RM13.png,RM2.png,1428087
21120,23:57:39,8855,819128864,choice,choice1,1,0,0,20,29585,46426.45,928529,RM1.png,yog_t.png,Y9.png,Y1.png,Y10.png,Y12.png,Y2.png,Y3.png,1458286
21120,23:57:39,8855,819128864,choice,choice1,1,0,0,21,23427,45331.28571,951957,RM1.png,soup_t.png,S5.png,S9.png,S6.png,S10.png,S13.png,S3.png,1482346
21120,23:57:39,8855,819128864,choice,choice1,1,0,0,22,40186,45097.45455,992144,RM1.png,crisps_t.png,C4.png,C10.png,C3.png,C6.png,C2.png,C7.png,1523138
21120,23:57:39,8855,819128864,choice,choice3,0,0,1,23,235956,53395.69565,1228101,RM1.png,crisps_t.png,C8.png,C10.png,C5.png,C9.png,C2.png,C6.png,1759726
21120,23:57:39,8855,819128864,switch,choice3,0,0,1,23,235956,53395.69565,1228101,C8.png,crisps_t.png,C8.png,C10.png,C5.png,C9.png,C2.png,C6.png,1763672
21120,23:57:39,8855,819128864,choice,choice4,0,0,1,24,8898,51541.66667,1237000,C8.png,ready_t.png,RM12.png,RM4.png,RM5.png,RM9.png,RM13.png,RM8.png,1773184
21120,23:57:39,8855,819128864,switch,choice4,0,0,1,24,8898,51541.66667,1237000,RM12.png,ready_t.png,RM12.png,RM4.png,RM5.png,RM9.png,RM13.png,RM8.png,1777495
21120,23:57:39,8855,819128864,choice,choice3,0,0,1,25,18280,50211.24,1255281,RM12.png,sand_t.png,SW3.png,SW9.png,SW6.png,SW7.png,SW1.png,SW10.png,1796383
21120,23:57:39,8855,819128864,switch,choice3,0,0,1,25,18280,50211.24,1255281,SW3.png,sand_t.png,SW3.png,SW9.png,SW6.png,SW7.png,SW1.png,SW10.png,1799225
21120,23:57:39,8855,819128864,choice,choice3,0,0,1,26,7312,48561.30769,1262594,SW3.png,soup_t.png,S6.png,S12.png,S9.png,S1.png,S4.png,S3.png,1807148
21120,23:57:39,8855,819128864,switch,choice3,0,0,1,26,7312,48561.30769,1262594,S6.png,soup_t.png,S6.png,S12.png,S9.png,S1.png,S4.png,S3.png,1812260
21120,23:57:39,8855,819128864,choice,choice1,1,0,0,27,8409,47074.22222,1271004,S6.png,cereal_t.png,BC3.png,BC1.png,BC2.png,BC5.png,BC8.png,BC9.png,1821278
21120,23:57:39,8855,819128864,choice,choice1,1,0,0,28,8323,45690.28571,1279328,S6.png,yog_t.png,Y8.png,Y12.png,Y2.png,Y11.png,Y10.png,Y3.png,1830209
21120,23:57:39,8855,819128864,choice,choice1,1,0,0,29,7918,44387.82759,1287247,S6.png,yog_t.png,Y9.png,Y1.png,Y10.png,Y12.png,Y2.png,Y3.png,1838738
21120,23:57:39,8855,819128864,choice,choice4,0,0,1,30,25768,43767.2,1313016,S6.png,sand_t.png,SW4.png,SW9.png,SW6.png,SW7.png,SW3.png,SW5.png,1865121
21120,23:57:39,8855,819128864,switch,choice4,0,0,1,30,25768,43767.2,1313016,SW4.png,sand_t.png,SW4.png,SW9.png,SW6.png,SW7.png,SW3.png,SW5.png,1868497
21220,13:34:12,9845,769031281,choice,choice3,0,0,1,1,11248,11249,11249,RM1.png,soup_t.png,S6.png,S12.png,S9.png,S1.png,S4.png,S3.png,74981
21220,13:34:12,9845,769031281,switch,choice3,0,0,1,1,11248,11249,11249,S6.png,soup_t.png,S6.png,S12.png,S9.png,S1.png,S4.png,S3.png,80250
21220,13:34:12,9845,769031281,choice,choice1,1,0,0,2,18678,14964,29928,S6.png,soup_t.png,S5.png,S9.png,S6.png,S10.png,S13.png,S3.png,99546
21220,13:34:12,9845,769031281,choice,choice1,1,0,0,3,7492,12473.66667,37421,S6.png,cereal_t.png,BC3.png,BC1.png,BC2.png,BC5.png,BC8.png,BC9.png,107660
21220,13:34:12,9845,769031281,choice,choice6,0,0,1,4,29049,16617.75,66471,S6.png,crisps_t.png,C4.png,C7.png,C3.png,C12.png,C6.png,C9.png,137336
21220,13:34:12,9845,769031281,switch,choice6,0,1,1,4,29049,16617.75,66471,C4.png,crisps_t.png,C4.png,C7.png,C3.png,C12.png,C6.png,C9.png,142196
21220,13:34:12,9845,769031281,choice,choice3,0,1,1,5,8812,15056.8,75284,C4.png,crisps_t.png,C8.png,C10.png,C5.png,C9.png,C2.png,C6.png,151634
21220,13:34:12,9845,769031281,switch,choice3,0,0,1,5,8812,15056.8,75284,C8.png,crisps_t.png,C8.png,C10.png,C5.png,C9.png,C2.png,C6.png,153773
21220,13:34:12,9845,769031281,choice,choice3,0,0,1,6,9638,14153.83333,84923,C8.png,soup_t.png,S5.png,S12.png,S9.png,S13.png,S3.png,S7.png,164028
21220,13:34:12,9845,769031281,switch,choice3,0,1,1,6,9638,14153.83333,84923,S5.png,soup_t.png,S5.png,S12.png,S9.png,S13.png,S3.png,S7.png,166933
21220,13:34:12,9845,769031281,choice,choice1,1,1,0,7,18307,14747.28571,103231,S5.png,yog_t.png,Y6.png,Y13.png,Y12.png,Y10.png,Y2.png,Y3.png,185865
21220,13:34:12,9845,769031281,choice,choice3,0,1,1,8,12309,14442.625,115541,S5.png,soup_t.png,S5.png,S12.png,S9.png,S3.png,S6.png,S13.png,198800
21220,13:34:12,9845,769031281,switch,choice3,0,1,1,8,12309,14442.625,115541,S5.png,soup_t.png,S5.png,S12.png,S9.png,S3.png,S6.png,S13.png,202869
21220,13:34:12,9845,769031281,choice,choice3,0,1,1,9,18192,14859.33333,133734,S5.png,sand_t.png,SW4.png,SW9.png,SW6.png,SW7.png,SW3.png,SW5.png,221703
21220,13:34:12,9845,769031281,switch,choice3,0,0,1,9,18192,14859.33333,133734,SW4.png,sand_t.png,SW4.png,SW9.png,SW6.png,SW7.png,SW3.png,SW5.png,223592
21220,13:34:12,9845,769031281,choice,choice4,0,0,1,10,9636,14337.1,143371,SW4.png,ready_t.png,RM1.png,RM11.png,RM5.png,RM7.png,RM13.png,RM2.png,233864
21220,13:34:12,9845,769031281,switch,choice4,0,0,1,10,9636,14337.1,143371,RM1.png,ready_t.png,RM1.png,RM11.png,RM5.png,RM7.png,RM13.png,RM2.png,236167
21220,13:34:12,9845,769031281,choice,choice1,1,0,0,11,28184,15596,171556,RM1.png,yog_t.png,Y9.png,Y1.png,Y10.png,Y12.png,Y2.png,Y3.png,264979
21220,13:34:12,9845,769031281,choice,choice4,0,0,1,12,6315,14822.66667,177872,RM1.png,ready_t.png,RM12.png,RM4.png,RM5.png,RM9.png,RM13.png,RM8.png,271912
21220,13:34:12,9845,769031281,switch,choice4,0,0,1,12,6315,14822.66667,177872,RM12.png,ready_t.png,RM12.png,RM4.png,RM5.png,RM9.png,RM13.png,RM8.png,273986
21220,13:34:12,9845,769031281,choice,choice4,0,0,1,13,9416,14406.84615,187289,RM12.png,ready_t.png,RM11.png,RM4.png,RM5.png,RM9.png,RM2.png,RM12.png,284014
21220,13:34:12,9845,769031281,switch,choice4,0,0,1,13,9416,14406.84615,187289,RM11.png,ready_t.png,RM11.png,RM4.png,RM5.png,RM9.png,RM2.png,RM12.png,285997
21220,13:34:12,9845,769031281,choice,choice2,0,0,1,14,14728,14429.85714,202018,RM11.png,ready_t.png,RM1.png,RM11.png,RM5.png,RM3.png,RM13.png,RM2.png,301344
21220,13:34:12,9845,769031281,switch,choice2,0,0,1,14,14728,14429.85714,202018,RM1.png,ready_t.png,RM1.png,RM11.png,RM5.png,RM3.png,RM13.png,RM2.png,303171
21220,13:34:12,9845,769031281,choice,choice2,0,0,1,15,36407,15895.06667,238426,RM1.png,crisps_t.png,C4.png,C10.png,C3.png,C2.png,C9.png,C6.png,340208
21220,13:34:12,9845,769031281,switch,choice2,0,0,1,15,36407,15895.06667,238426,C4.png,crisps_t.png,C4.png,C10.png,C3.png,C2.png,C9.png,C6.png,341994
21220,13:34:12,9845,769031281,breaktime,choice2,0,0,1,15,36407,15895.06667,238426,C4.png,crisps_t.png,C4.png,C10.png,C3.png,C2.png,C9.png,C6.png,344584
21220,13:34:12,9845,769031281,choice,choice1,1,0,0,16,13431,15741.125,251858,C4.png,sand_t.png,SW4.png,SW9.png,SW6.png,SW7.png,SW8.png,SW11.png,358635
21220,13:34:12,9845,769031281,choice,choice4,0,0,1,17,13817,15628,265676,C4.png,cereal_t.png,BC3.png,BC11.png,BC2.png,BC12.png,BC8.png,BC1.png,373070
21220,13:34:12,9845,769031281,switch,choice4,0,0,1,17,13817,15628,265676,BC3.png,cereal_t.png,BC3.png,BC11.png,BC2.png,BC12.png,BC8.png,BC1.png,375671
21220,13:34:12,9845,769031281,choice,choice3,0,0,1,18,14639,15573.11111,280316,BC3.png,soup_t.png,S13.png,S12.png,S9.png,S7.png,S3.png,S4.png,390928
21220,13:34:12,9845,769031281,switch,choice3,0,0,1,18,14639,15573.11111,280316,S13.png,soup_t.png,S13.png,S12.png,S9.png,S7.png,S3.png,S4.png,392693
21220,13:34:12,9845,769031281,choice,choice2,0,0,1,19,16291,15610.94737,296608,S13.png,ready_t.png,RM1.png,RM11.png,RM5.png,RM8.png,RM13.png,RM2.png,409614
21220,13:34:12,9845,769031281,switch,choice2,0,0,1,19,16291,15610.94737,296608,RM1.png,ready_t.png,RM1.png,RM11.png,RM5.png,RM8.png,RM13.png,RM2.png,411625
21220,13:34:12,9845,769031281,choice,choice1,1,0,0,20,12078,15434.35,308687,RM1.png,yog_t.png,Y8.png,Y12.png,Y2.png,Y11.png,Y10.png,Y3.png,424319
21220,13:34:12,9845,769031281,choice,choice2,0,0,1,21,9567,15155,318255,RM1.png,crisps_t.png,C7.png,C5.png,C3.png,C2.png,C11.png,C12.png,434508
21220,13:34:12,9845,769031281,switch,choice2,0,0,1,21,9567,15155,318255,C7.png,crisps_t.png,C7.png,C5.png,C3.png,C2.png,C11.png,C12.png,436313
21220,13:34:12,9845,769031281,choice,choice3,0,0,1,22,13797,15093.31818,332053,C7.png,sand_t.png,SW3.png,SW9.png,SW6.png,SW7.png,SW1.png,SW10.png,450738
21220,13:34:12,9845,769031281,switch,choice3,0,1,1,22,13797,15093.31818,332053,SW3.png,sand_t.png,SW3.png,SW9.png,SW6.png,SW7.png,SW1.png,SW10.png,452742
21220,13:34:12,9845,769031281,choice,choice1,1,1,0,23,9582,14853.73913,341636,SW3.png,cereal_t.png,BC12.png,BC1.png,BC2.png,BC4.png,BC8.png,BC5.png,462944
21220,13:34:12,9845,769031281,choice,choice1,1,1,0,24,5874,14479.625,347511,SW3.png,cereal_t.png,BC12.png,BC9.png,BC2.png,BC6.png,BC5.png,BC8.png,469436
21220,13:34:12,9845,769031281,choice,choice1,1,1,0,25,9326,14273.52,356838,SW3.png,yog_t.png,Y8.png,Y1.png,Y3.png,Y12.png,Y10.png,Y2.png,479386
21220,13:34:12,9845,769031281,choice,choice3,0,1,1,26,14873,14296.61538,371712,SW3.png,sand_t.png,SW8.png,SW9.png,SW6.png,SW7.png,SW1.png,SW11.png,494886
21220,13:34:12,9845,769031281,switch,choice3,0,0,1,26,14873,14296.61538,371712,SW8.png,sand_t.png,SW8.png,SW9.png,SW6.png,SW7.png,SW1.png,SW11.png,496788
21220,13:34:12,9845,769031281,choice,choice3,0,0,1,27,10937,14172.22222,382650,SW8.png,sand_t.png,SW10.png,SW11.png,SW6.png,SW7.png,SW1.png,SW8.png,508351
21220,13:34:12,9845,769031281,switch,choice3,0,0,1,27,10937,14172.22222,382650,SW10.png,sand_t.png,SW10.png,SW11.png,SW6.png,SW7.png,SW1.png,SW8.png,509993
21220,13:34:12,9845,769031281,choice,choice3,0,0,1,28,6368,13893.53571,389019,SW10.png,sand_t.png,SW3.png,SW9.png,SW6.png,SW7.png,SW1.png,SW10.png,516981
21220,13:34:12,9845,769031281,switch,choice3,0,0,1,28,6368,13893.53571,389019,SW3.png,sand_t.png,SW3.png,SW9.png,SW6.png,SW7.png,SW1.png,SW10.png,519021
21220,13:34:12,9845,769031281,choice,choice3,0,0,1,29,6952,13654.2069,395972,SW3.png,crisps_t.png,C8.png,C10.png,C5.png,C9.png,C2.png,C6.png,526582
21220,13:34:12,9845,769031281,switch,choice3,0,0,1,29,6952,13654.2069,395972,C8.png,crisps_t.png,C8.png,C10.png,C5.png,C9.png,C2.png,C6.png,528410
21220,13:34:12,9845,769031281,choice,choice2,0,0,1,30,32696,14288.96667,428669,C8.png,yog_t.png,Y9.png,Y1.png,Y10.png,Y12.png,Y2.png,Y3.png,561728
21220,13:34:12,9845,769031281,switch,choice2,0,0,1,30,32696,14288.96667,428669,Y9.png,yog_t.png,Y9.png,Y1.png,Y10.png,Y12.png,Y2.png,Y3.png,563767
21320,02:55:08,9697,781788107,choice,choice2,0,0,1,1,22283,22284,22284,RM1.png,crisps_t.png,C4.png,C10.png,C3.png,C2.png,C9.png,C6.png,145769
21320,02:55:08,9697,781788107,switch,choice2,0,0,1,1,22283,22284,22284,C4.png,crisps_t.png,C4.png,C10.png,C3.png,C2.png,C9.png,C6.png,152057
21320,02:55:08,9697,781788107,choice,choice3,0,0,1,2,51069,36677,73354,C4.png,sand_t.png,SW4.png,SW9.png,SW6.png,SW7.png,SW3.png,SW5.png,203706
21320,02:55:08,9697,781788107,switch,choice3,0,1,1,2,51069,36677,73354,SW4.png,sand_t.png,SW4.png,SW9.png,SW6.png,SW7.png,SW3.png,SW5.png,208513
21320,02:55:08,9697,781788107,choice,choice2,0,1,1,3,52337,41897.33333,125692,SW4.png,crisps_t.png,C4.png,C10.png,C3.png,C6.png,C2.png,C7.png,261426
21320,02:55:08,9697,781788107,switch,choice2,0,0,1,3,52337,41897.33333,125692,C4.png,crisps_t.png,C4.png,C10.png,C3.png,C6.png,C2.png,C7.png,264905
21320,02:55:08,9697,781788107,choice,choice1,1,0,0,4,8584,33569.25,134277,C4.png,yog_t.png,Y8.png,Y1.png,Y3.png,Y12.png,Y10.png,Y2.png,274073
21320,02:55:08,9697,781788107,choice,choice3,0,0,1,5,17729,30401.4,152007,C4.png,soup_t.png,S6.png,S12.png,S9.png,S1.png,S4.png,S3.png,292385
21320,02:55:08,9697,781788107,switch,choice3,0,0,1,5,17729,30401.4,152007,S6.png,soup_t.png,S6.png,S12.png,S9.png,S1.png,S4.png,S3.png,295809
21320,02:55:08,9697,781788107,choice,choice2,0,0,1,6,6236,26374,158244,S6.png,ready_t.png,RM1.png,RM11.png,RM5.png,RM7.png,RM13.png,RM2.png,302625
21320,02:55:08,9697,781788107,switch,choice2,0,0,1,6,6236,26374,158244,RM1.png,ready_t.png,RM1.png,RM11.png,RM5.png,RM7.png,RM13.png,RM2.png,305265
21320,02:55:08,9697,781788107,choice,choice3,0,0,1,7,10465,24101.42857,168710,RM1.png,cereal_t.png,BC12.png,BC1.png,BC2.png,BC4.png,BC8.png,BC5.png,316321
21320,02:55:08,9697,781788107,switch,choice3,0,0,1,7,10465,24101.42857,168710,BC12.png,cereal_t.png,BC12.png,BC1.png,BC2.png,BC4.png,BC8.png,BC5.png,318937
21320,02:55:08,9697,781788107,choice,choice1,1,0,0,8,33318,25253.625,202029,BC12.png,soup_t.png,S5.png,S12.png,S9.png,S3.png,S6.png,S13.png,352841
21320,02:55:08,9697,781788107,choice,choice2,0,0,1,9,64761,29643.44444,266791,BC12.png,ready_t.png,RM1.png,RM11.png,RM5.png,RM3.png,RM13.png,RM2.png,418185
21320,02:55:08,9697,781788107,switch,choice2,0,0,1,9,64761,29643.44444,266791,RM1.png,ready_t.png,RM1.png,RM11.png,RM5.png,RM3.png,RM13.png,RM2.png,419817
21320,02:55:08,9697,781788107,choice,choice3,0,0,1,10,17841,28463.3,284633,RM1.png,soup_t.png,S5.png,S12.png,S9.png,S13.png,S3.png,S7.png,438233
21320,02:55:08,9697,781788107,switch,choice3,0,0,1,10,17841,28463.3,284633,S5.png,soup_t.png,S5.png,S12.png,S9.png,S13.png,S3.png,S7.png,441233
21320,02:55:08,9697,781788107,choice,choice2,0,0,1,11,6288,26447.45455,290922,S5.png,crisps_t.png,C7.png,C5.png,C3.png,C2.png,C11.png,C12.png,448113
21320,02:55:08,9697,781788107,switch,choice2,0,0,1,11,6288,26447.45455,290922,C7.png,crisps_t.png,C7.png,C5.png,C3.png,C2.png,C11.png,C12.png,450209
21320,02:55:08,9697,781788107,choice,choice3,0,0,1,12,5049,24664.33333,295972,C7.png,crisps_t.png,C4.png,C7.png,C3.png,C12.png,C6.png,C9.png,455842
21320,02:55:08,9697,781788107,switch,choice3,0,0,1,12,5049,24664.33333,295972,C4.png,crisps_t.png,C4.png,C7.png,C3.png,C12.png,C6.png,C9.png,457201
21320,02:55:08,9697,781788107,choice,choice1,1,0,0,13,50097,26620.76923,346070,C4.png,yog_t.png,Y9.png,Y1.png,Y10.png,Y12.png,Y2.png,Y3.png,507873
21320,02:55:08,9697,781788107,choice,choice4,0,0,1,14,18037,26007.71429,364108,C4.png,ready_t.png,RM11.png,RM4.png,RM5.png,RM9.png,RM2.png,RM12.png,526497
21320,02:55:08,9697,781788107,switch,choice4,0,0,1,14,18037,26007.71429,364108,RM11.png,ready_t.png,RM11.png,RM4.png,RM5.png,RM9.png,RM2.png,RM12.png,529881
21320,02:55:08,9697,781788107,choice,choice1,1,0,0,15,8796,24860.33333,372905,RM11.png,cereal_t.png,BC3.png,BC1.png,BC2.png,BC5.png,BC8.png,BC9.png,539257
21320,02:55:08,9697,781788107,breaktime,choice1,1,0,0,15,8796,24860.33333,372905,RM11.png,cereal_t.png,BC3.png,BC1.png,BC2.png,BC5.png,BC8.png,BC9.png,541676
21320,02:55:08,9697,781788107,choice,choice1,1,0,0,16,22772,24729.875,395678,RM11.png,yog_t.png,Y6.png,Y13.png,Y12.png,Y10.png,Y2.png,Y3.png,565033
21320,02:55:08,9697,781788107,choice,choice1,1,0,0,17,7774,23732.52941,403453,RM11.png,cereal_t.png,BC3.png,BC11.png,BC2.png,BC9.png,BC8.png,BC1.png,573385
21320,02:55:08,9697,781788107,choice,choice3,0,0,1,18,26199,23869.61111,429653,RM11.png,crisps_t.png,C8.png,C10.png,C5.png,C9.png,C2.png,C6.png,600177
21320,02:55:08,9697,781788107,switch,choice3,0,0,1,18,26199,23869.61111,429653,C8.png,crisps_t.png,C8.png,C10.png,C5.png,C9.png,C2.png,C6.png,601705
21320,02:55:08,9697,781788107,choice,choice1,1,0,0,19,5034,22878.31579,434688,C8.png,cereal_t.png,BC3.png,BC11.png,BC2.png,BC12.png,BC8.png,BC1.png,607313
21320,02:55:08,9697,781788107,choice,choice5,0,0,1,20,7097,22089.3,441786,C8.png,cereal_t.png,BC12.png,BC9.png,BC2.png,BC6.png,BC5.png,BC8.png,614993
21320,02:55:08,9697,781788107,switch,choice5,0,0,1,20,7097,22089.3,441786,BC12.png,cereal_t.png,BC12.png,BC9.png,BC2.png,BC6.png,BC5.png,BC8.png,616594
21320,02:55:08,9697,781788107,choice,choice2,0,0,1,21,11198,21570.71429,452985,BC12.png,sand_t.png,SW3.png,SW9.png,SW6.png,SW7.png,SW1.png,SW10.png,628377
21320,02:55:08,9697,781788107,switch,choice2,0,0,1,21,11198,21570.71429,452985,SW3.png,sand_t.png,SW3.png,SW9.png,SW6.png,SW7.png,SW1.png,SW10.png,629657
21320,02:55:08,9697,781788107,choice,choice1,1,0,0,22,24435,21700.95455,477421,SW3.png,yog_t.png,Y8.png,Y12.png,Y2.png,Y11.png,Y10.png,Y3.png,654681
21320,02:55:08,9697,781788107,choice,choice6,0,0,1,23,4834,20967.65217,482256,SW3.png,ready_t.png,RM12.png,RM4.png,RM5.png,RM9.png,RM13.png,RM8.png,660097
21320,02:55:08,9697,781788107,switch,choice6,0,0,1,23,4834,20967.65217,482256,RM12.png,ready_t.png,RM12.png,RM4.png,RM5.png,RM9.png,RM13.png,RM8.png,661849
21320,02:55:08,9697,781788107,choice,choice1,1,0,0,24,10051,20512.83333,492308,RM12.png,sand_t.png,SW4.png,SW9.png,SW6.png,SW7.png,SW8.png,SW11.png,672481
21320,02:55:08,9697,781788107,choice,choice2,0,0,1,25,8610,20036.76,500919,RM12.png,sand_t.png,SW10.png,SW11.png,SW6.png,SW7.png,SW1.png,SW8.png,681673
21320,02:55:08,9697,781788107,switch,choice2,0,0,1,25,8610,20036.76,500919,SW10.png,sand_t.png,SW10.png,SW11.png,SW6.png,SW7.png,SW1.png,SW8.png,683273
21320,02:55:08,9697,781788107,choice,choice6,0,0,1,26,24018,20189.92308,524938,SW10.png,soup_t.png,S13.png,S12.png,S9.png,S7.png,S3.png,S4.png,707883
21320,02:55:08,9697,781788107,switch,choice6,0,0,1,26,24018,20189.92308,524938,S13.png,soup_t.png,S13.png,S12.png,S9.png,S7.png,S3.png,S4.png,709305
21320,02:55:08,9697,781788107,choice,choice4,0,0,1,27,13783,19952.66667,538722,S13.png,ready_t.png,RM1.png,RM11.png,RM5.png,RM8.png,RM13.png,RM2.png,723681
21320,02:55:08,9697,781788107,switch,choice4,0,0,1,27,13783,19952.66667,538722,RM1.png,ready_t.png,RM1.png,RM11.png,RM5.png,RM8.png,RM13.png,RM2.png,725401
21320,02:55:08,9697,781788107,choice,choice1,1,0,0,28,8708,19551.10714,547431,RM1.png,cereal_t.png,BC3.png,BC1.png,BC2.png,BC5.png,BC8.png,BC9.png,734689
21320,02:55:08,9697,781788107,choice,choice6,0,0,1,29,12768,19317.24138,560200,RM1.png,soup_t.png,S5.png,S12.png,S9.png,S3.png,S6.png,S13.png,748033
21320,02:55:08,9697,781788107,switch,choice6,0,1,1,29,12768,19317.24138,560200,S5.png,soup_t.png,S5.png,S12.png,S9.png,S3.png,S6.png,S13.png,749945
21320,02:55:08,9697,781788107,choice,choice4,0,1,1,30,47405,20253.53333,607606,S5.png,soup_t.png,S6.png,S12.png,S9.png,S1.png,S4.png,S3.png,797937
21320,02:55:08,9697,781788107,switch,choice4,0,0,1,30,47405,20253.53333,607606,S6.png,soup_t.png,S6.png,S12.png,S9.png,S1.png,S4.png,S3.png,800009
21320,13:38:35,9893,498521614,choice,choice1,1,0,0,1,4374,4375,4375,RM1.png,soup_t.png,S5.png,S9.png,S6.png,S10.png,S13.png,S3.png,163302
21320,13:38:35,9893,498521614,choice,choice4,0,0,1,2,10508,7442,14884,RM1.png,ready_t.png,RM1.png,RM11.png,RM5.png,RM8.png,RM13.png,RM2.png,174369
21320,13:38:35,9893,498521614,switch,choice4,0,0,1,2,10508,7442,14884,RM1.png,ready_t.png,RM1.png,RM11.png,RM5.png,RM8.png,RM13.png,RM2.png,178555
21320,13:38:35,9893,498521614,choice,choice5,0,0,1,3,12012,8965.666667,26897,RM1.png,sand_t.png,SW4.png,SW9.png,SW6.png,SW7.png,SW8.png,SW11.png,191139
21320,13:38:35,9893,498521614,switch,choice5,0,1,1,3,12012,8965.666667,26897,SW4.png,sand_t.png,SW4.png,SW9.png,SW6.png,SW7.png,SW8.png,SW11.png,193063
21320,13:38:35,9893,498521614,choice,choice3,0,1,1,4,3087,7496.25,29985,SW4.png,sand_t.png,SW3.png,SW9.png,SW6.png,SW7.png,SW1.png,SW10.png,196713
21320,13:38:35,9893,498521614,switch,choice3,0,0,1,4,3087,7496.25,29985,SW3.png,sand_t.png,SW3.png,SW9.png,SW6.png,SW7.png,SW1.png,SW10.png,198537
21320,13:38:35,9893,498521614,choice,choice2,0,0,1,5,2034,6404,32020,SW3.png,crisps_t.png,C7.png,C5.png,C3.png,C2.png,C11.png,C12.png,201128
21320,13:38:35,9893,498521614,switch,choice2,0,0,1,5,2034,6404,32020,C7.png,crisps_t.png,C7.png,C5.png,C3.png,C2.png,C11.png,C12.png,204388
21320,13:38:35,9893,498521614,choice,choice6,0,0,1,6,4033,6009,36054,C7.png,crisps_t.png,C4.png,C10.png,C3.png,C6.png,C2.png,C7.png,208976
21320,13:38:35,9893,498521614,switch,choice6,0,0,1,6,4033,6009,36054,C4.png,crisps_t.png,C4.png,C10.png,C3.png,C6.png,C2.png,C7.png,211094
21320,13:38:35,9893,498521614,choice,choice3,0,0,1,7,8511,6366.571429,44566,C4.png,cereal_t.png,BC12.png,BC1.png,BC2.png,BC4.png,BC8.png,BC5.png,220170
21320,13:38:35,9893,498521614,switch,choice3,0,1,1,7,8511,6366.571429,44566,BC12.png,cereal_t.png,BC12.png,BC1.png,BC2.png,BC4.png,BC8.png,BC5.png,222471
21320,13:38:35,9893,498521614,choice,choice1,1,1,0,8,4824,6173.875,49391,BC12.png,cereal_t.png,BC12.png,BC9.png,BC2.png,BC6.png,BC5.png,BC8.png,227849
21320,13:38:35,9893,498521614,choice,choice2,0,1,1,9,26360,8416.888889,75752,BC12.png,crisps_t.png,C8.png,C10.png,C5.png,C9.png,C2.png,C6.png,254769
21320,13:38:35,9893,498521614,switch,choice2,0,0,1,9,26360,8416.888889,75752,C8.png,crisps_t.png,C8.png,C10.png,C5.png,C9.png,C2.png,C6.png,256679
21320,13:38:35,9893,498521614,choice,choice2,0,0,1,10,1904,7765.7,77657,C8.png,cereal_t.png,BC3.png,BC11.png,BC2.png,BC9.png,BC8.png,BC1.png,259144
21320,13:38:35,9893,498521614,switch,choice2,0,1,1,10,1904,7765.7,77657,BC3.png,cereal_t.png,BC3.png,BC11.png,BC2.png,BC9.png,BC8.png,BC1.png,260939
21320,13:38:35,9893,498521614,choice,choice4,0,1,1,11,34057,10155.90909,111715,BC3.png,ready_t.png,RM1.png,RM11.png,RM5.png,RM7.png,RM13.png,RM2.png,295564
21320,13:38:35,9893,498521614,switch,choice4,0,0,1,11,34057,10155.90909,111715,RM1.png,ready_t.png,RM1.png,RM11.png,RM5.png,RM7.png,RM13.png,RM2.png,297413
21320,13:38:35,9893,498521614,choice,choice4,0,0,1,12,3255,9580.916667,114971,RM1.png,ready_t.png,RM11.png,RM4.png,RM5.png,RM9.png,RM2.png,RM12.png,301226
21320,13:38:35,9893,498521614,switch,choice4,0,0,1,12,3255,9580.916667,114971,RM11.png,ready_t.png,RM11.png,RM4.png,RM5.png,RM9.png,RM2.png,RM12.png,303061
21320,13:38:35,9893,498521614,choice,choice1,1,0,0,13,3715,9129.769231,118687,RM11.png,yog_t.png,Y9.png,Y1.png,Y10.png,Y12.png,Y2.png,Y3.png,307336
21320,13:38:35,9893,498521614,choice,choice4,0,0,1,14,8282,9069.285714,126970,RM11.png,sand_t.png,SW10.png,SW11.png,SW6.png,SW7.png,SW1.png,SW8.png,316170
21320,13:38:35,9893,498521614,switch,choice4,0,0,1,14,8282,9069.285714,126970,SW10.png,sand_t.png,SW10.png,SW11.png,SW6.png,SW7.png,SW1.png,SW8.png,318204
21320,13:38:35,9893,498521614,choice,choice2,0,0,1,15,4260,8748.733333,131231,SW10.png,cereal_t.png,BC3.png,BC11.png,BC2.png,BC12.png,BC8.png,BC1.png,323014
21320,13:38:35,9893,498521614,switch,choice2,0,1,1,15,4260,8748.733333,131231,BC3.png,cereal_t.png,BC3.png,BC11.png,BC2.png,BC12.png,BC8.png,BC1.png,324953
21320,13:38:35,9893,498521614,breaktime,choice2,0,1,1,15,4260,8748.733333,131231,BC3.png,cereal_t.png,BC3.png,BC11.png,BC2.png,BC12.png,BC8.png,BC1.png,431791
21320,13:38:35,9893,498521614,choice,choice4,0,1,1,16,4893,8507.8125,136125,BC3.png,ready_t.png,RM12.png,RM4.png,RM5.png,RM9.png,RM13.png,RM8.png,437242
21320,13:38:35,9893,498521614,switch,choice4,0,0,1,16,4893,8507.8125,136125,RM12.png,ready_t.png,RM12.png,RM4.png,RM5.png,RM9.png,RM13.png,RM8.png,438859
21320,13:38:35,9893,498521614,choice,choice1,1,0,0,17,26707,9578.411765,162833,RM12.png,yog_t.png,Y8.png,Y4.png,Y3.png,Y2.png,Y10.png,Y11.png,466122
21320,13:38:35,9893,498521614,choice,choice1,1,0,0,18,14855,9871.611111,177689,RM12.png,cereal_t.png,BC3.png,BC1.png,BC2.png,BC5.png,BC8.png,BC9.png,481535
21320,13:38:35,9893,498521614,choice,choice1,1,0,0,19,6843,9712.263158,184533,RM12.png,yog_t.png,Y8.png,Y12.png,Y2.png,Y11.png,Y10.png,Y3.png,488939
21320,13:38:35,9893,498521614,choice,choice1,1,0,0,20,5884,9520.9,190418,RM12.png,soup_t.png,S5.png,S12.png,S9.png,S13.png,S3.png,S7.png,495380
21320,13:38:35,9893,498521614,choice,choice1,1,0,0,21,57579,11809.42857,247998,RM12.png,yog_t.png,Y6.png,Y13.png,Y12.png,Y10.png,Y2.png,Y3.png,553525
21320,13:38:35,9893,498521614,choice,choice6,0,0,1,22,6184,11553.77273,254183,RM12.png,sand_t.png,SW8.png,SW9.png,SW6.png,SW7.png,SW1.png,SW11.png,560278
21320,13:38:35,9893,498521614,switch,choice6,0,0,1,22,6184,11553.77273,254183,SW8.png,sand_t.png,SW8.png,SW9.png,SW6.png,SW7.png,SW1.png,SW11.png,562393
21320,13:38:35,9893,498521614,choice,choice1,1,0,0,23,7538,11379.21739,261722,SW8.png,soup_t.png,S5.png,S12.png,S9.png,S3.png,S6.png,S13.png,570481
21320,13:38:35,9893,498521614,choice,choice1,1,0,0,24,57398,13296.70833,319121,SW8.png,sand_t.png,SW4.png,SW9.png,SW6.png,SW7.png,SW3.png,SW5.png,628441
21320,13:38:35,9893,498521614,choice,choice2,0,0,1,25,10391,13180.52,329513,SW8.png,ready_t.png,RM1.png,RM11.png,RM5.png,RM3.png,RM13.png,RM2.png,639398
21320,13:38:35,9893,498521614,switch,choice2,0,0,1,25,10391,13180.52,329513,RM1.png,ready_t.png,RM1.png,RM11.png,RM5.png,RM3.png,RM13.png,RM2.png,641143
21320,13:38:35,9893,498521614,choice,choice2,0,0,1,26,14916,13247.30769,344430,RM1.png,crisps_t.png,C4.png,C10.png,C3.png,C2.png,C9.png,C6.png,656622
21320,13:38:35,9893,498521614,switch,choice2,0,0,1,26,14916,13247.30769,344430,C4.png,crisps_t.png,C4.png,C10.png,C3.png,C2.png,C9.png,C6.png,658817
21320,13:38:35,9893,498521614,choice,choice3,0,0,1,27,8451,13069.7037,352882,C4.png,soup_t.png,S6.png,S12.png,S9.png,S1.png,S4.png,S3.png,667823
21320,13:38:35,9893,498521614,switch,choice3,0,0,1,27,8451,13069.7037,352882,S6.png,soup_t.png,S6.png,S12.png,S9.png,S1.png,S4.png,S3.png,671153
21320,13:38:35,9893,498521614,choice,choice1,1,0,0,28,31389,13724,384272,S6.png,yog_t.png,Y6.png,Y13.png,Y12.png,Y10.png,Y2.png,Y3.png,703094
21320,13:38:35,9893,498521614,choice,choice1,1,0,0,29,99308,16675.2069,483581,S6.png,sand_t.png,SW8.png,SW9.png,SW6.png,SW7.png,SW1.png,SW11.png,802961
21320,13:38:35,9893,498521614,choice,choice4,0,0,1,30,42568,17538.33333,526150,S6.png,sand_t.png,SW3.png,SW9.png,SW6.png,SW7.png,SW1.png,SW10.png,846083
21320,13:38:35,9893,498521614,switch,choice4,0,0,1,30,42568,17538.33333,526150,SW3.png,sand_t.png,SW3.png,SW9.png,SW6.png,SW7.png,SW1.png,SW10.png,848229
21320,15:36:53,9964,705151435,choice,choice1,1,0,0,1,8092,8093,8093,RM1.png,ready_t.png,RM1.png,RM11.png,RM5.png,RM3.png,RM13.png,RM2.png,108890
21320,15:36:53,9964,705151435,choice,choice1,1,0,0,2,14541,11317.5,22635,RM1.png,cereal_t.png,BC12.png,BC9.png,BC2.png,BC6.png,BC5.png,BC8.png,124020
21320,15:36:53,9964,705151435,choice,choice1,1,0,0,3,15192,12609.33333,37828,RM1.png,cereal_t.png,BC3.png,BC11.png,BC2.png,BC9.png,BC8.png,BC1.png,139783
21320,15:36:53,9964,705151435,choice,choice4,0,0,1,4,10531,12090,48360,RM1.png,ready_t.png,RM12.png,RM4.png,RM5.png,RM9.png,RM13.png,RM8.png,150900
21320,15:36:53,9964,705151435,switch,choice4,0,0,1,4,10531,12090,48360,RM12.png,ready_t.png,RM12.png,RM4.png,RM5.png,RM9.png,RM13.png,RM8.png,157864
21320,15:36:53,9964,705151435,choice,choice3,0,0,1,5,11210,11914.2,59571,RM12.png,soup_t.png,S5.png,S12.png,S9.png,S3.png,S6.png,S13.png,169656
21320,15:36:53,9964,705151435,switch,choice3,0,0,1,5,11210,11914.2,59571,S5.png,soup_t.png,S5.png,S12.png,S9.png,S3.png,S6.png,S13.png,173415
21320,15:36:53,9964,705151435,choice,choice1,1,0,0,6,6086,10943,65658,S5.png,cereal_t.png,BC3.png,BC1.png,BC2.png,BC5.png,BC8.png,BC9.png,180077
21320,15:36:53,9964,705151435,choice,choice1,1,0,0,7,7566,10460.71429,73225,S5.png,yog_t.png,Y9.png,Y1.png,Y10.png,Y12.png,Y2.png,Y3.png,188220
21320,15:36:53,9964,705151435,choice,choice3,0,0,1,8,15852,11134.75,89078,S5.png,soup_t.png,S5.png,S12.png,S9.png,S13.png,S3.png,S7.png,204654
21320,15:36:53,9964,705151435,switch,choice3,0,0,1,8,15852,11134.75,89078,S5.png,soup_t.png,S5.png,S12.png,S9.png,S13.png,S3.png,S7.png,207738
21320,15:36:53,9964,705151435,choice,choice1,1,0,0,9,5998,10564.11111,95077,S5.png,yog_t.png,Y6.png,Y13.png,Y12.png,Y10.png,Y2.png,Y3.png,214310
21320,15:36:53,9964,705151435,choice,choice1,1,0,0,10,13165,10824.3,108243,S5.png,ready_t.png,RM1.png,RM11.png,RM5.png,RM8.png,RM13.png,RM2.png,228058
21320,15:36:53,9964,705151435,choice,choice6,0,0,1,11,10718,10814.72727,118962,S5.png,cereal_t.png,BC12.png,BC1.png,BC2.png,BC4.png,BC8.png,BC5.png,239357
21320,15:36:53,9964,705151435,switch,choice6,0,1,1,11,10718,10814.72727,118962,BC12.png,cereal_t.png,BC12.png,BC1.png,BC2.png,BC4.png,BC8.png,BC5.png,241554
21320,15:36:53,9964,705151435,choice,choice1,1,1,0,12,20341,11608.66667,139304,BC12.png,yog_t.png,Y8.png,Y1.png,Y3.png,Y12.png,Y10.png,Y2.png,262475
21320,15:36:53,9964,705151435,choice,choice4,0,1,1,13,50209,14578,189514,BC12.png,ready_t.png,RM11.png,RM4.png,RM5.png,RM9.png,RM2.png,RM12.png,313269
21320,15:36:53,9964,705151435,switch,choice4,0,0,1,13,50209,14578,189514,RM11.png,ready_t.png,RM11.png,RM4.png,RM5.png,RM9.png,RM2.png,RM12.png,316636
21320,15:36:53,9964,705151435,choice,choice3,0,0,1,14,38347,16275.85714,227862,RM11.png,sand_t.png,SW8.png,SW9.png,SW6.png,SW7.png,SW1.png,SW11.png,355572
21320,15:36:53,9964,705151435,switch,choice3,0,0,1,14,38347,16275.85714,227862,SW8.png,sand_t.png,SW8.png,SW9.png,SW6.png,SW7.png,SW1.png,SW11.png,359029
21320,15:36:53,9964,705151435,choice,choice3,0,0,1,15,22398,16684.06667,250261,SW8.png,soup_t.png,S6.png,S12.png,S9.png,S1.png,S4.png,S3.png,382009
21320,15:36:53,9964,705151435,switch,choice3,0,0,1,15,22398,16684.06667,250261,S6.png,soup_t.png,S6.png,S12.png,S9.png,S1.png,S4.png,S3.png,384185
21320,15:36:53,9964,705151435,breaktime,choice3,0,0,1,15,22398,16684.06667,250261,S6.png,soup_t.png,S6.png,S12.png,S9.png,S1.png,S4.png,S3.png,386195
21320,15:36:53,9964,705151435,choice,choice3,0,0,1,16,19083,16834.0625,269345,S6.png,crisps_t.png,C4.png,C7.png,C3.png,C12.png,C6.png,C9.png,405850
21320,15:36:53,9964,705151435,switch,choice3,0,1,1,16,19083,16834.0625,269345,C4.png,crisps_t.png,C4.png,C7.png,C3.png,C12.png,C6.png,C9.png,410346
21320,15:36:53,9964,705151435,choice,choice1,1,1,0,17,4752,16123.41176,274098,C4.png,yog_t.png,Y8.png,Y12.png,Y2.png,Y11.png,Y10.png,Y3.png,415678
21320,15:36:53,9964,705151435,choice,choice4,0,1,1,18,5236,15518.61111,279335,C4.png,soup_t.png,S5.png,S9.png,S6.png,S10.png,S13.png,S3.png,421494
21320,15:36:53,9964,705151435,switch,choice4,0,0,1,18,5236,15518.61111,279335,S5.png,soup_t.png,S5.png,S9.png,S6.png,S10.png,S13.png,S3.png,423479
21320,15:36:53,9964,705151435,choice,choice1,1,0,0,19,6894,15064.73684,286230,S5.png,sand_t.png,SW4.png,SW9.png,SW6.png,SW7.png,SW8.png,SW11.png,430949
21320,15:36:53,9964,705151435,choice,choice3,0,0,1,20,6711,14647.1,292942,S5.png,crisps_t.png,C4.png,C10.png,C3.png,C2.png,C9.png,C6.png,438247
21320,15:36:53,9964,705151435,switch,choice3,0,0,1,20,6711,14647.1,292942,C4.png,crisps_t.png,C4.png,C10.png,C3.png,C2.png,C9.png,C6.png,441180
21320,15:36:53,9964,705151435,choice,choice4,0,0,1,21,24824,15131.7619,317767,C4.png,sand_t.png,SW3.png,SW9.png,SW6.png,SW7.png,SW1.png,SW10.png,466573
21320,15:36:53,9964,705151435,switch,choice4,0,0,1,21,24824,15131.7619,317767,SW3.png,sand_t.png,SW3.png,SW9.png,SW6.png,SW7.png,SW1.png,SW10.png,468791
21320,15:36:53,9964,705151435,choice,choice1,1,0,0,22,12454,15010.09091,330222,SW3.png,yog_t.png,Y8.png,Y4.png,Y3.png,Y2.png,Y10.png,Y11.png,481826
21320,15:36:53,9964,705151435,choice,choice4,0,0,1,23,7550,14685.78261,337773,SW3.png,cereal_t.png,BC3.png,BC11.png,BC2.png,BC12.png,BC8.png,BC1.png,489952
21320,15:36:53,9964,705151435,switch,choice4,0,0,1,23,7550,14685.78261,337773,BC3.png,cereal_t.png,BC3.png,BC11.png,BC2.png,BC12.png,BC8.png,BC1.png,493157
21320,15:36:53,9964,705151435,choice,choice3,0,0,1,24,11151,14538.54167,348925,BC3.png,sand_t.png,SW4.png,SW9.png,SW6.png,SW7.png,SW3.png,SW5.png,504882
21320,15:36:53,9964,705151435,switch,choice3,0,0,1,24,11151,14538.54167,348925,SW4.png,sand_t.png,SW4.png,SW9.png,SW6.png,SW7.png,SW3.png,SW5.png,506585
21320,15:36:53,9964,705151435,choice,choice4,0,0,1,25,5696,14184.88,354622,SW4.png,crisps_t.png,C8.png,C10.png,C5.png,C9.png,C2.png,C6.png,512856
21320,15:36:53,9964,705151435,switch,choice4,0,0,1,25,5696,14184.88,354622,C8.png,crisps_t.png,C8.png,C10.png,C5.png,C9.png,C2.png,C6.png,514791
21320,15:36:53,9964,705151435,choice,choice1,1,0,0,26,12029,14102,366652,C8.png,soup_t.png,S13.png,S12.png,S9.png,S7.png,S3.png,S4.png,527403
21320,15:36:53,9964,705151435,choice,choice1,1,0,0,27,58774,15756.55556,425427,C8.png,crisps_t.png,C4.png,C10.png,C3.png,C6.png,C2.png,C7.png,586760
21320,15:36:53,9964,705151435,choice,choice4,0,0,1,28,8874,15510.78571,434302,C8.png,ready_t.png,RM1.png,RM11.png,RM5.png,RM7.png,RM13.png,RM2.png,596207
21320,15:36:53,9964,705151435,switch,choice4,0,0,1,28,8874,15510.78571,434302,RM1.png,ready_t.png,RM1.png,RM11.png,RM5.png,RM7.png,RM13.png,RM2.png,598394
21320,15:36:53,9964,705151435,choice,choice6,0,0,1,29,18694,15620.58621,452997,RM1.png,sand_t.png,SW10.png,SW11.png,SW6.png,SW7.png,SW1.png,SW8.png,617656
21320,15:36:53,9964,705151435,switch,choice6,0,0,1,29,18694,15620.58621,452997,SW10.png,sand_t.png,SW10.png,SW11.png,SW6.png,SW7.png,SW1.png,SW8.png,619481
21320,15:36:53,9964,705151435,choice,choice1,1,0,0,30,9519,15417.23333,462517,SW10.png,yog_t.png,Y8.png,Y4.png,Y3.png,Y2.png,Y10.png,Y11.png,629573
21320,16:09:16,8795,366681748,choice,choice3,0,0,1,1,11419,11420,11420,RM1.png,crisps_t.png,C4.png,C10.png,C3.png,C6.png,C2.png,C7.png,63932
21320,16:09:16,8795,366681748,switch,choice3,0,1,1,1,11419,11420,11420,C4.png,crisps_t.png,C4.png,C10.png,C3.png,C6.png,C2.png,C7.png,68705
21320,16:09:16,8795,366681748,choice,choice1,1,1,0,2,62748,37084.5,74169,C4.png,cereal_t.png,BC3.png,BC11.png,BC2.png,BC12.png,BC8.png,BC1.png,132035
21320,16:09:16,8795,366681748,choice,choice3,0,1,1,3,15981,30050.33333,90151,C4.png,sand_t.png,SW4.png,SW9.png,SW6.png,SW7.png,SW3.png,SW5.png,148613
21320,16:09:16,8795,366681748,switch,choice3,0,1,1,3,15981,30050.33333,90151,SW4.png,sand_t.png,SW4.png,SW9.png,SW6.png,SW7.png,SW3.png,SW5.png,151073
21320,16:09:16,8795,366681748,choice,choice1,1,1,0,4,7998,24537.5,98150,SW4.png,yog_t.png,Y8.png,Y4.png,Y3.png,Y2.png,Y10.png,Y11.png,159656
21320,16:09:16,8795,366681748,choice,choice6,0,1,1,5,25119,24654,123270,SW4.png,sand_t.png,SW8.png,SW9.png,SW6.png,SW7.png,SW1.png,SW11.png,185364
21320,16:09:16,8795,366681748,switch,choice6,0,1,1,5,25119,24654,123270,SW8.png,sand_t.png,SW8.png,SW9.png,SW6.png,SW7.png,SW1.png,SW11.png,188244
21320,16:09:16,8795,366681748,choice,choice1,1,1,0,6,4705,21329.33333,127976,SW8.png,cereal_t.png,BC3.png,BC1.png,BC2.png,BC5.png,BC8.png,BC9.png,193529
21320,16:09:16,8795,366681748,choice,choice3,0,1,1,7,7569,19363.71429,135546,SW8.png,sand_t.png,SW3.png,SW9.png,SW6.png,SW7.png,SW1.png,SW10.png,201680
21320,16:09:16,8795,366681748,switch,choice3,0,0,1,7,7569,19363.71429,135546,SW3.png,sand_t.png,SW3.png,SW9.png,SW6.png,SW7.png,SW1.png,SW10.png,204821
21320,16:09:16,8795,366681748,choice,choice1,1,0,0,8,24872,20052.375,160419,SW3.png,soup_t.png,S5.png,S9.png,S6.png,S10.png,S13.png,S3.png,230271
21320,16:09:16,8795,366681748,choice,choice1,1,0,0,9,10350,18974.44444,170770,SW3.png,yog_t.png,Y9.png,Y1.png,Y10.png,Y12.png,Y2.png,Y3.png,241210
21320,16:09:16,8795,366681748,choice,choice3,0,0,1,10,2316,17308.7,173087,SW3.png,cereal_t.png,BC12.png,BC9.png,BC2.png,BC6.png,BC5.png,BC8.png,244115
21320,16:09:16,8795,366681748,switch,choice3,0,0,1,10,2316,17308.7,173087,BC12.png,cereal_t.png,BC12.png,BC9.png,BC2.png,BC6.png,BC5.png,BC8.png,245618
21320,16:09:16,8795,366681748,choice,choice2,0,0,1,11,10735,16711.18182,183823,BC12.png,ready_t.png,RM1.png,RM11.png,RM5.png,RM8.png,RM13.png,RM2.png,256935
21320,16:09:16,8795,366681748,switch,choice2,0,0,1,11,10735,16711.18182,183823,RM1.png,ready_t.png,RM1.png,RM11.png,RM5.png,RM8.png,RM13.png,RM2.png,258532
21320,16:09:16,8795,366681748,choice,choice1,1,0,0,12,17848,16806,201672,RM1.png,yog_t.png,Y6.png,Y13.png,Y12.png,Y10.png,Y2.png,Y3.png,276954
21320,16:09:16,8795,366681748,choice,choice3,0,0,1,13,45657,19025.38462,247330,RM1.png,crisps_t.png,C4.png,C7.png,C3.png,C12.png,C6.png,C9.png,323206
21320,16:09:16,8795,366681748,switch,choice3,0,0,1,13,45657,19025.38462,247330,C4.png,crisps_t.png,C4.png,C7.png,C3.png,C12.png,C6.png,C9.png,324513
21320,16:09:16,8795,366681748,choice,choice4,0,0,1,14,16631,18854.42857,263962,C4.png,ready_t.png,RM1.png,RM11.png,RM5.png,RM7.png,RM13.png,RM2.png,341734
21320,16:09:16,8795,366681748,switch,choice4,0,0,1,14,16631,18854.42857,263962,RM1.png,ready_t.png,RM1.png,RM11.png,RM5.png,RM7.png,RM13.png,RM2.png,343446
21320,16:09:16,8795,366681748,choice,choice3,0,0,1,15,5435,17959.86667,269398,RM1.png,crisps_t.png,C8.png,C10.png,C5.png,C9.png,C2.png,C6.png,349464
21320,16:09:16,8795,366681748,switch,choice3,0,0,1,15,5435,17959.86667,269398,C8.png,crisps_t.png,C8.png,C10.png,C5.png,C9.png,C2.png,C6.png,353166
21320,16:09:16,8795,366681748,breaktime,choice3,0,0,1,15,5435,17959.86667,269398,C8.png,crisps_t.png,C8.png,C10.png,C5.png,C9.png,C2.png,C6.png,354978
21320,16:09:16,8795,366681748,choice,choice4,0,0,1,16,3108,17031.6875,272507,C8.png,soup_t.png,S5.png,S12.png,S9.png,S13.png,S3.png,S7.png,358674
21320,16:09:16,8795,366681748,switch,choice4,0,0,1,16,3108,17031.6875,272507,S5.png,soup_t.png,S5.png,S12.png,S9.png,S13.png,S3.png,S7.png,360205
21320,16:09:16,8795,366681748,choice,choice2,0,0,1,17,8263,16515.94118,280771,S5.png,crisps_t.png,C7.png,C5.png,C3.png,C2.png,C11.png,C12.png,369049
21320,16:09:16,8795,366681748,switch,choice2,0,0,1,17,8263,16515.94118,280771,C7.png,crisps_t.png,C7.png,C5.png,C3.png,C2.png,C11.png,C12.png,370266
21320,16:09:16,8795,366681748,choice,choice1,1,0,0,18,9055,16101.5,289827,C7.png,cereal_t.png,BC12.png,BC1.png,BC2.png,BC4.png,BC8.png,BC5.png,379895
21320,16:09:16,8795,366681748,choice,choice4,0,0,1,19,3525,15439.63158,293353,C7.png,ready_t.png,RM12.png,RM4.png,RM5.png,RM9.png,RM13.png,RM8.png,384003
21320,16:09:16,8795,366681748,switch,choice4,0,0,1,19,3525,15439.63158,293353,RM12.png,ready_t.png,RM12.png,RM4.png,RM5.png,RM9.png,RM13.png,RM8.png,385926
21320,16:09:16,8795,366681748,choice,choice2,0,0,1,20,6778,15006.6,300132,RM12.png,crisps_t.png,C4.png,C10.png,C3.png,C2.png,C9.png,C6.png,393292
21320,16:09:16,8795,366681748,switch,choice2,0,0,1,20,6778,15006.6,300132,C4.png,crisps_t.png,C4.png,C10.png,C3.png,C2.png,C9.png,C6.png,394469
21320,16:09:16,8795,366681748,choice,choice3,0,0,1,21,7634,14655.57143,307767,C4.png,sand_t.png,SW4.png,SW9.png,SW6.png,SW7.png,SW8.png,SW11.png,402685
21320,16:09:16,8795,366681748,switch,choice3,0,0,1,21,7634,14655.57143,307767,SW4.png,sand_t.png,SW4.png,SW9.png,SW6.png,SW7.png,SW8.png,SW11.png,403941
21320,16:09:16,8795,366681748,choice,choice4,0,0,1,22,1918,14076.63636,309686,SW4.png,ready_t.png,RM11.png,RM4.png,RM5.png,RM9.png,RM2.png,RM12.png,406440
21320,16:09:16,8795,366681748,switch,choice4,0,0,1,22,1918,14076.63636,309686,RM11.png,ready_t.png,RM11.png,RM4.png,RM5.png,RM9.png,RM2.png,RM12.png,407815
21320,16:09:16,8795,366681748,choice,choice3,0,0,1,23,7588,13794.56522,317275,RM11.png,soup_t.png,S5.png,S12.png,S9.png,S3.png,S6.png,S13.png,415979
21320,16:09:16,8795,366681748,switch,choice3,0,0,1,23,7588,13794.56522,317275,S5.png,soup_t.png,S5.png,S12.png,S9.png,S3.png,S6.png,S13.png,417091
21320,16:09:16,8795,366681748,choice,choice3,0,0,1,24,2224,13312.5,319500,S5.png,soup_t.png,S13.png,S12.png,S9.png,S7.png,S3.png,S4.png,419903
21320,16:09:16,8795,366681748,switch,choice3,0,1,1,24,2224,13312.5,319500,S13.png,soup_t.png,S13.png,S12.png,S9.png,S7.png,S3.png,S4.png,422611
21320,16:09:16,8795,366681748,choice,choice3,0,1,1,25,4482,12959.32,323983,S13.png,sand_t.png,SW10.png,SW11.png,SW6.png,SW7.png,SW1.png,SW8.png,427663
21320,16:09:16,8795,366681748,switch,choice3,0,0,1,25,4482,12959.32,323983,SW10.png,sand_t.png,SW10.png,SW11.png,SW6.png,SW7.png,SW1.png,SW8.png,429180
21320,16:09:16,8795,366681748,choice,choice1,1,0,0,26,3995,12614.57692,327979,SW10.png,yog_t.png,Y8.png,Y12.png,Y2.png,Y11.png,Y10.png,Y3.png,433745
21320,16:09:16,8795,366681748,choice,choice2,0,0,1,27,1676,12209.48148,329656,SW10.png,yog_t.png,Y8.png,Y1.png,Y3.png,Y12.png,Y10.png,Y2.png,435995
21320,16:09:16,8795,366681748,switch,choice2,0,0,1,27,1676,12209.48148,329656,Y8.png,yog_t.png,Y8.png,Y1.png,Y3.png,Y12.png,Y10.png,Y2.png,437211
21320,16:09:16,8795,366681748,choice,choice1,1,0,0,28,1740,11835.60714,331397,Y8.png,cereal_t.png,BC3.png,BC11.png,BC2.png,BC12.png,BC8.png,BC1.png,439528
21320,16:09:16,8795,366681748,choice,choice4,0,0,1,29,2942,11528.96552,334340,Y8.png,ready_t.png,RM11.png,RM4.png,RM5.png,RM9.png,RM2.png,RM12.png,443047
21320,16:09:16,8795,366681748,switch,choice4,0,0,1,29,2942,11528.96552,334340,RM11.png,ready_t.png,RM11.png,RM4.png,RM5.png,RM9.png,RM2.png,RM12.png,444540
21320,16:09:16,8795,366681748,choice,choice1,1,0,0,30,7765,11403.53333,342106,RM11.png,yog_t.png,Y8.png,Y1.png,Y3.png,Y12.png,Y10.png,Y2.png,452872
21320,17:56:03,8762,238996730,choice,choice3,0,0,1,1,40287,40288,40288,RM1.png,sand_t.png,SW10.png,SW11.png,SW6.png,SW7.png,SW1.png,SW8.png,161101
21320,17:56:03,8762,238996730,switch,choice3,0,0,1,1,40287,40288,40288,SW10.png,sand_t.png,SW10.png,SW11.png,SW6.png,SW7.png,SW1.png,SW8.png,172055
21320,17:56:03,8762,238996730,choice,choice4,0,0,1,2,17233,28761,57522,SW10.png,ready_t.png,RM12.png,RM4.png,RM5.png,RM9.png,RM13.png,RM8.png,189861
21320,17:56:03,8762,238996730,switch,choice4,0,0,1,2,17233,28761,57522,RM12.png,ready_t.png,RM12.png,RM4.png,RM5.png,RM9.png,RM13.png,RM8.png,192049
21320,17:56:03,8762,238996730,choice,choice3,0,0,1,3,16267,24596.66667,73790,RM12.png,sand_t.png,SW4.png,SW9.png,SW6.png,SW7.png,SW3.png,SW5.png,208877
21320,17:56:03,8762,238996730,switch,choice3,0,0,1,3,16267,24596.66667,73790,SW4.png,sand_t.png,SW4.png,SW9.png,SW6.png,SW7.png,SW3.png,SW5.png,211380
21320,17:56:03,8762,238996730,choice,choice1,1,0,0,4,27805,25399,101596,SW4.png,cereal_t.png,BC12.png,BC1.png,BC2.png,BC4.png,BC8.png,BC5.png,239749
21320,17:56:03,8762,238996730,choice,choice4,0,0,1,5,20815,24482.4,122412,SW4.png,ready_t.png,RM1.png,RM11.png,RM5.png,RM8.png,RM13.png,RM2.png,261124
21320,17:56:03,8762,238996730,switch,choice4,0,0,1,5,20815,24482.4,122412,RM1.png,ready_t.png,RM1.png,RM11.png,RM5.png,RM8.png,RM13.png,RM2.png,263289
21320,17:56:03,8762,238996730,choice,choice1,1,0,0,6,15777,23031.66667,138190,RM1.png,yog_t.png,Y8.png,Y1.png,Y3.png,Y12.png,Y10.png,Y2.png,279634
21320,17:56:03,8762,238996730,choice,choice2,0,0,1,7,29890,24011.57143,168081,RM1.png,soup_t.png,S5.png,S9.png,S6.png,S10.png,S13.png,S3.png,310097
21320,17:56:03,8762,238996730,switch,choice2,0,0,1,7,29890,24011.57143,168081,S5.png,soup_t.png,S5.png,S9.png,S6.png,S10.png,S13.png,S3.png,312367
21320,17:56:03,8762,238996730,choice,choice4,0,0,1,8,30251,24791.625,198333,S5.png,sand_t.png,SW3.png,SW9.png,SW6.png,SW7.png,SW1.png,SW10.png,343173
21320,17:56:03,8762,238996730,switch,choice4,0,0,1,8,30251,24791.625,198333,SW3.png,sand_t.png,SW3.png,SW9.png,SW6.png,SW7.png,SW1.png,SW10.png,344991
21320,17:56:03,8762,238996730,choice,choice1,1,0,0,9,18899,24137,217233,SW3.png,yog_t.png,Y6.png,Y13.png,Y12.png,Y10.png,Y2.png,Y3.png,364452
21320,17:56:03,8762,238996730,choice,choice1,1,0,0,10,4200,22143.4,221434,SW3.png,yog_t.png,Y8.png,Y4.png,Y3.png,Y2.png,Y10.png,Y11.png,369219
21320,17:56:03,8762,238996730,choice,choice3,0,0,1,11,17945,21761.81818,239380,SW3.png,soup_t.png,S6.png,S12.png,S9.png,S1.png,S4.png,S3.png,387730
21320,17:56:03,8762,238996730,switch,choice3,0,0,1,11,17945,21761.81818,239380,S6.png,soup_t.png,S6.png,S12.png,S9.png,S1.png,S4.png,S3.png,389927
21320,17:56:03,8762,238996730,choice,choice4,0,0,1,12,23302,21890.25,262683,S6.png,ready_t.png,RM1.png,RM11.png,RM5.png,RM7.png,RM13.png,RM2.png,413786
21320,17:56:03,8762,238996730,switch,choice4,0,0,1,12,23302,21890.25,262683,RM1.png,ready_t.png,RM1.png,RM11.png,RM5.png,RM7.png,RM13.png,RM2.png,415280
21320,17:56:03,8762,238996730,choice,choice1,1,0,0,13,13753,21264.38462,276437,RM1.png,yog_t.png,Y8.png,Y12.png,Y2.png,Y11.png,Y10.png,Y3.png,429587
21320,17:56:03,8762,238996730,choice,choice4,0,0,1,14,11856,20592.42857,288294,RM1.png,ready_t.png,RM1.png,RM11.png,RM5.png,RM3.png,RM13.png,RM2.png,442005
21320,17:56:03,8762,238996730,switch,choice4,0,0,1,14,11856,20592.42857,288294,RM1.png,ready_t.png,RM1.png,RM11.png,RM5.png,RM3.png,RM13.png,RM2.png,444091
21320,17:56:03,8762,238996730,choice,choice6,0,0,1,15,13012,20087.13333,301307,RM1.png,sand_t.png,SW8.png,SW9.png,SW6.png,SW7.png,SW1.png,SW11.png,457661
21320,17:56:03,8762,238996730,switch,choice6,0,0,1,15,13012,20087.13333,301307,SW8.png,sand_t.png,SW8.png,SW9.png,SW6.png,SW7.png,SW1.png,SW11.png,459536
21320,17:56:03,8762,238996730,breaktime,choice6,0,0,1,15,13012,20087.13333,301307,SW8.png,sand_t.png,SW8.png,SW9.png,SW6.png,SW7.png,SW1.png,SW11.png,1010138
21320,17:56:03,8762,238996730,choice,choice3,0,0,1,16,8227,19345.9375,309535,SW8.png,soup_t.png,S13.png,S12.png,S9.png,S7.png,S3.png,S4.png,1018931
21320,17:56:03,8762,238996730,switch,choice3,0,0,1,16,8227,19345.9375,309535,S13.png,soup_t.png,S13.png,S12.png,S9.png,S7.png,S3.png,S4.png,1021516
21320,17:56:03,8762,238996730,choice,choice1,1,0,0,17,17381,19230.41176,326917,S13.png,cereal_t.png,BC12.png,BC9.png,BC2.png,BC6.png,BC5.png,BC8.png,1039452
21320,17:56:03,8762,238996730,choice,choice3,0,0,1,18,9337,18680.83333,336255,S13.png,crisps_t.png,C8.png,C10.png,C5.png,C9.png,C2.png,C6.png,1049356
21320,17:56:03,8762,238996730,switch,choice3,0,0,1,18,9337,18680.83333,336255,C8.png,crisps_t.png,C8.png,C10.png,C5.png,C9.png,C2.png,C6.png,1051161
21320,17:56:03,8762,238996730,choice,choice3,0,0,1,19,8610,18150.84211,344866,C8.png,soup_t.png,S5.png,S12.png,S9.png,S3.png,S6.png,S13.png,1060329
21320,17:56:03,8762,238996730,switch,choice3,0,0,1,19,8610,18150.84211,344866,S5.png,soup_t.png,S5.png,S12.png,S9.png,S3.png,S6.png,S13.png,1062156
21320,17:56:03,8762,238996730,choice,choice1,1,0,0,20,8058,17646.25,352925,S5.png,yog_t.png,Y9.png,Y1.png,Y10.png,Y12.png,Y2.png,Y3.png,1070776
21320,17:56:03,8762,238996730,choice,choice3,0,0,1,21,12426,17397.71429,365352,S5.png,sand_t.png,SW4.png,SW9.png,SW6.png,SW7.png,SW8.png,SW11.png,1083761
21320,17:56:03,8762,238996730,switch,choice3,0,0,1,21,12426,17397.71429,365352,SW4.png,sand_t.png,SW4.png,SW9.png,SW6.png,SW7.png,SW8.png,SW11.png,1085330
21320,17:56:03,8762,238996730,choice,choice1,1,0,0,22,23451,17672.90909,388804,SW4.png,cereal_t.png,BC3.png,BC11.png,BC2.png,BC9.png,BC8.png,BC1.png,1109352
21320,17:56:03,8762,238996730,choice,choice3,0,0,1,23,10916,17379.17391,399721,SW4.png,crisps_t.png,C4.png,C10.png,C3.png,C6.png,C2.png,C7.png,1120832
21320,17:56:03,8762,238996730,switch,choice3,0,0,1,23,10916,17379.17391,399721,C4.png,crisps_t.png,C4.png,C10.png,C3.png,C6.png,C2.png,C7.png,1123346
21320,17:56:03,8762,238996730,choice,choice4,0,0,1,24,6816,16939.08333,406538,C4.png,cereal_t.png,BC3.png,BC11.png,BC2.png,BC12.png,BC8.png,BC1.png,1130715
21320,17:56:03,8762,238996730,switch,choice4,0,1,1,24,6816,16939.08333,406538,BC3.png,cereal_t.png,BC3.png,BC11.png,BC2.png,BC12.png,BC8.png,BC1.png,1135484
21320,17:56:03,8762,238996730,choice,choice4,0,1,1,25,23509,17201.92,430048,BC3.png,cereal_t.png,BC3.png,BC1.png,BC2.png,BC5.png,BC8.png,BC9.png,1159557
21320,17:56:03,8762,238996730,switch,choice4,0,1,1,25,23509,17201.92,430048,BC3.png,cereal_t.png,BC3.png,BC1.png,BC2.png,BC5.png,BC8.png,BC9.png,1161508
21320,17:56:03,8762,238996730,choice,choice1,1,1,0,26,20253,17319.30769,450302,BC3.png,crisps_t.png,C4.png,C10.png,C3.png,C2.png,C9.png,C6.png,1182316
21320,17:56:03,8762,238996730,choice,choice4,0,1,1,27,6502,16918.7037,456805,BC3.png,ready_t.png,RM11.png,RM4.png,RM5.png,RM9.png,RM2.png,RM12.png,1189381
21320,17:56:03,8762,238996730,switch,choice4,0,0,1,27,6502,16918.7037,456805,RM11.png,ready_t.png,RM11.png,RM4.png,RM5.png,RM9.png,RM2.png,RM12.png,1190944
21320,17:56:03,8762,238996730,choice,choice1,1,0,0,28,9555,16655.75,466361,RM11.png,soup_t.png,S5.png,S12.png,S9.png,S3.png,S6.png,S13.png,1201067
21320,17:56:03,8762,238996730,choice,choice1,1,0,0,29,11580,16480.75862,477942,RM11.png,crisps_t.png,C4.png,C10.png,C3.png,C6.png,C2.png,C7.png,1213208
21320,17:56:03,8762,238996730,choice,choice3,0,0,1,30,17170,16503.76667,495113,RM11.png,soup_t.png,S13.png,S12.png,S9.png,S7.png,S3.png,S4.png,1230931
21320,17:56:03,8762,238996730,switch,choice3,0,0,1,30,17170,16503.76667,495113,S13.png,soup_t.png,S13.png,S12.png,S9.png,S7.png,S3.png,S4.png,1232582
21320,18:37:02,9681,681998247,choice,choice4,0,0,1,1,2416,2417,2417,RM1.png,ready_t.png,RM11.png,RM4.png,RM5.png,RM9.png,RM2.png,RM12.png,51434
21320,18:37:02,9681,681998247,switch,choice4,0,0,1,1,2416,2417,2417,RM11.png,ready_t.png,RM11.png,RM4.png,RM5.png,RM9.png,RM2.png,RM12.png,57994
21320,18:37:02,9681,681998247,choice,choice1,1,0,0,2,11578,6998,13996,RM11.png,yog_t.png,Y9.png,Y1.png,Y10.png,Y12.png,Y2.png,Y3.png,70202
21320,18:37:02,9681,681998247,choice,choice2,0,0,1,3,8283,7426.666667,22280,RM11.png,ready_t.png,RM1.png,RM11.png,RM5.png,RM7.png,RM13.png,RM2.png,79112
21320,18:37:02,9681,681998247,switch,choice2,0,0,1,3,8283,7426.666667,22280,RM1.png,ready_t.png,RM1.png,RM11.png,RM5.png,RM7.png,RM13.png,RM2.png,81923
21320,18:37:02,9681,681998247,choice,choice3,0,0,1,4,5326,6901.75,27607,RM1.png,crisps_t.png,C8.png,C10.png,C5.png,C9.png,C2.png,C6.png,87876
21320,18:37:02,9681,681998247,switch,choice3,0,0,1,4,5326,6901.75,27607,C8.png,crisps_t.png,C8.png,C10.png,C5.png,C9.png,C2.png,C6.png,91238
21320,18:37:02,9681,681998247,choice,choice2,0,0,1,5,9208,7363.2,36816,C8.png,crisps_t.png,C4.png,C10.png,C3.png,C6.png,C2.png,C7.png,101064
21320,18:37:02,9681,681998247,switch,choice2,0,0,1,5,9208,7363.2,36816,C4.png,crisps_t.png,C4.png,C10.png,C3.png,C6.png,C2.png,C7.png,103548
21320,18:37:02,9681,681998247,choice,choice3,0,0,1,6,3080,6649.5,39897,C4.png,cereal_t.png,BC3.png,BC1.png,BC2.png,BC5.png,BC8.png,BC9.png,107258
21320,18:37:02,9681,681998247,switch,choice3,0,1,1,6,3080,6649.5,39897,BC3.png,cereal_t.png,BC3.png,BC1.png,BC2.png,BC5.png,BC8.png,BC9.png,109523
21320,18:37:02,9681,681998247,choice,choice1,1,1,0,7,6349,6606.714286,46247,BC3.png,cereal_t.png,BC3.png,BC11.png,BC2.png,BC12.png,BC8.png,BC1.png,116482
21320,18:37:02,9681,681998247,choice,choice1,1,1,0,8,9597,6980.625,55845,BC3.png,yog_t.png,Y8.png,Y12.png,Y2.png,Y11.png,Y10.png,Y3.png,126702
21320,18:37:02,9681,681998247,choice,choice1,1,1,0,9,7419,7029.444444,63265,BC3.png,yog_t.png,Y8.png,Y4.png,Y3.png,Y2.png,Y10.png,Y11.png,134735
21320,18:37:02,9681,681998247,choice,choice1,1,1,0,10,14423,7768.9,77689,BC3.png,crisps_t.png,C4.png,C7.png,C3.png,C12.png,C6.png,C9.png,149803
21320,18:37:02,9681,681998247,choice,choice3,0,1,1,11,6231,7629.181818,83921,BC3.png,soup_t.png,S6.png,S12.png,S9.png,S1.png,S4.png,S3.png,156650
21320,18:37:02,9681,681998247,switch,choice3,0,0,1,11,6231,7629.181818,83921,S6.png,soup_t.png,S6.png,S12.png,S9.png,S1.png,S4.png,S3.png,158865
21320,18:37:02,9681,681998247,choice,choice3,0,0,1,12,9708,7802.5,93630,S6.png,cereal_t.png,BC12.png,BC9.png,BC2.png,BC6.png,BC5.png,BC8.png,169186
21320,18:37:02,9681,681998247,switch,choice3,0,0,1,12,9708,7802.5,93630,BC12.png,cereal_t.png,BC12.png,BC9.png,BC2.png,BC6.png,BC5.png,BC8.png,170993
21320,18:37:02,9681,681998247,choice,choice2,0,0,1,13,9791,7955.538462,103422,BC12.png,crisps_t.png,C4.png,C10.png,C3.png,C2.png,C9.png,C6.png,181408
21320,18:37:02,9681,681998247,switch,choice2,0,0,1,13,9791,7955.538462,103422,C4.png,crisps_t.png,C4.png,C10.png,C3.png,C2.png,C9.png,C6.png,183685
21320,18:37:02,9681,681998247,choice,choice1,1,0,0,14,12300,8265.928571,115723,C4.png,yog_t.png,Y8.png,Y1.png,Y3.png,Y12.png,Y10.png,Y2.png,196605
21320,18:37:02,9681,681998247,choice,choice3,0,0,1,15,5104,8055.2,120828,C4.png,sand_t.png,SW10.png,SW11.png,SW6.png,SW7.png,SW1.png,SW8.png,202331
21320,18:37:02,9681,681998247,switch,choice3,0,0,1,15,5104,8055.2,120828,SW10.png,sand_t.png,SW10.png,SW11.png,SW6.png,SW7.png,SW1.png,SW8.png,204378
21320,18:37:02,9681,681998247,breaktime,choice3,0,0,1,15,5104,8055.2,120828,SW10.png,sand_t.png,SW10.png,SW11.png,SW6.png,SW7.png,SW1.png,SW8.png,206395
21320,18:37:02,9681,681998247,choice,choice1,1,0,0,16,5991,7926.25,126820,SW10.png,yog_t.png,Y6.png,Y13.png,Y12.png,Y10.png,Y2.png,Y3.png,213008
21320,18:37:02,9681,681998247,choice,choice3,0,0,1,17,6305,7830.941176,133126,SW10.png,sand_t.png,SW3.png,SW9.png,SW6.png,SW7.png,SW1.png,SW10.png,219941
21320,18:37:02,9681,681998247,switch,choice3,0,0,1,17,6305,7830.941176,133126,SW3.png,sand_t.png,SW3.png,SW9.png,SW6.png,SW7.png,SW1.png,SW10.png,222074
21320,18:37:02,9681,681998247,choice,choice2,0,0,1,18,6937,7781.333333,140064,SW3.png,ready_t.png,RM1.png,RM11.png,RM5.png,RM8.png,RM13.png,RM2.png,229629
21320,18:37:02,9681,681998247,switch,choice2,0,0,1,18,6937,7781.333333,140064,RM1.png,ready_t.png,RM1.png,RM11.png,RM5.png,RM8.png,RM13.png,RM2.png,231301
21320,18:37:02,9681,681998247,choice,choice2,0,0,1,19,14705,8145.789474,154770,RM1.png,crisps_t.png,C7.png,C5.png,C3.png,C2.png,C11.png,C12.png,246634
21320,18:37:02,9681,681998247,switch,choice2,0,0,1,19,14705,8145.789474,154770,C7.png,crisps_t.png,C7.png,C5.png,C3.png,C2.png,C11.png,C12.png,249621
21320,18:37:02,9681,681998247,choice,choice3,0,0,1,20,6070,8042.05,160841,C7.png,cereal_t.png,BC12.png,BC1.png,BC2.png,BC4.png,BC8.png,BC5.png,256308
21320,18:37:02,9681,681998247,switch,choice3,0,0,1,20,6070,8042.05,160841,BC12.png,cereal_t.png,BC12.png,BC1.png,BC2.png,BC4.png,BC8.png,BC5.png,258450
21320,18:37:02,9681,681998247,choice,choice3,0,0,1,21,170040,15756.28571,330882,BC12.png,soup_t.png,S13.png,S12.png,S9.png,S7.png,S3.png,S4.png,429116
21320,18:37:02,9681,681998247,switch,choice3,0,0,1,21,170040,15756.28571,330882,S13.png,soup_t.png,S13.png,S12.png,S9.png,S7.png,S3.png,S4.png,431114
21320,18:37:02,9681,681998247,choice,choice4,0,0,1,22,4610,15249.68182,335493,S13.png,ready_t.png,RM12.png,RM4.png,RM5.png,RM9.png,RM13.png,RM8.png,436345
21320,18:37:02,9681,681998247,switch,choice4,0,0,1,22,4610,15249.68182,335493,RM12.png,ready_t.png,RM12.png,RM4.png,RM5.png,RM9.png,RM13.png,RM8.png,438065
21320,18:37:02,9681,681998247,choice,choice1,1,0,0,23,4743,14792.91304,340237,RM12.png,cereal_t.png,BC3.png,BC11.png,BC2.png,BC9.png,BC8.png,BC1.png,443429
21320,18:37:02,9681,681998247,choice,choice3,0,0,1,24,6307,14439.375,346545,RM12.png,sand_t.png,SW4.png,SW9.png,SW6.png,SW7.png,SW3.png,SW5.png,450350
21320,18:37:02,9681,681998247,switch,choice3,0,1,1,24,6307,14439.375,346545,SW4.png,sand_t.png,SW4.png,SW9.png,SW6.png,SW7.png,SW3.png,SW5.png,452214
21320,18:37:02,9681,681998247,choice,choice3,0,1,1,25,126442,18919.52,472988,SW4.png,soup_t.png,S5.png,S12.png,S9.png,S13.png,S3.png,S7.png,579272
21320,18:37:02,9681,681998247,switch,choice3,0,0,1,25,126442,18919.52,472988,S5.png,soup_t.png,S5.png,S12.png,S9.png,S13.png,S3.png,S7.png,582003
21320,18:37:02,9681,681998247,choice,choice3,0,0,1,26,7459,18478.76923,480448,S5.png,sand_t.png,SW8.png,SW9.png,SW6.png,SW7.png,SW1.png,SW11.png,590092
21320,18:37:02,9681,681998247,switch,choice3,0,0,1,26,7459,18478.76923,480448,SW8.png,sand_t.png,SW8.png,SW9.png,SW6.png,SW7.png,SW1.png,SW11.png,593582
21320,18:37:02,9681,681998247,choice,choice2,0,0,1,27,79577,20741.7037,560026,SW8.png,ready_t.png,RM1.png,RM11.png,RM5.png,RM3.png,RM13.png,RM2.png,673784
21320,18:37:02,9681,681998247,switch,choice2,0,0,1,27,79577,20741.7037,560026,RM1.png,ready_t.png,RM1.png,RM11.png,RM5.png,RM3.png,RM13.png,RM2.png,675381
21320,18:37:02,9681,681998247,choice,choice6,0,0,1,28,31165,21114,591192,RM1.png,crisps_t.png,C4.png,C7.png,C3.png,C12.png,C6.png,C9.png,707169
21320,18:37:02,9681,681998247,switch,choice6,0,1,1,28,31165,21114,591192,C4.png,crisps_t.png,C4.png,C7.png,C3.png,C12.png,C6.png,C9.png,710298
21320,18:37:02,9681,681998247,choice,choice4,0,1,1,29,6925,20624.75862,598118,C4.png,ready_t.png,RM1.png,RM11.png,RM5.png,RM8.png,RM13.png,RM2.png,717839
21320,18:37:02,9681,681998247,switch,choice4,0,0,1,29,6925,20624.75862,598118,RM1.png,ready_t.png,RM1.png,RM11.png,RM5.png,RM8.png,RM13.png,RM2.png,720502
21320,18:37:02,9681,681998247,choice,choice3,0,0,1,30,12201,20344,610320,RM1.png,sand_t.png,SW4.png,SW9.png,SW6.png,SW7.png,SW8.png,SW11.png,733325
21320,18:37:02,9681,681998247,switch,choice3,0,1,1,30,12201,20344,610320,SW4.png,sand_t.png,SW4.png,SW9.png,SW6.png,SW7.png,SW8.png,SW11.png,734980
21320,19:04:32,9693,417935221,choice,choice5,0,0,1,1,881,882,882,RM1.png,cereal_t.png,BC3.png,BC11.png,BC2.png,BC9.png,BC8.png,BC1.png,45545
21320,19:04:32,9693,417935221,choice,choice3,0,0,1,2,3502,2192.5,4385,RM1.png,yog_t.png,Y6.png,Y13.png,Y12.png,Y10.png,Y2.png,Y3.png,59769
21320,19:04:32,9693,417935221,switch,choice3,0,0,1,2,3502,2192.5,4385,Y6.png,yog_t.png,Y6.png,Y13.png,Y12.png,Y10.png,Y2.png,Y3.png,63732
21320,19:04:32,9693,417935221,choice,choice1,1,0,0,3,3398,2594.666667,7784,Y6.png,crisps_t.png,C8.png,C10.png,C5.png,C9.png,C2.png,C6.png,67821
21320,19:04:32,9693,417935221,choice,choice5,0,0,1,4,3226,2752.75,11011,Y6.png,ready_t.png,RM1.png,RM11.png,RM5.png,RM3.png,RM13.png,RM2.png,71722
21320,19:04:32,9693,417935221,switch,choice5,0,0,1,4,3226,2752.75,11011,RM1.png,ready_t.png,RM1.png,RM11.png,RM5.png,RM3.png,RM13.png,RM2.png,73613
21320,19:04:32,9693,417935221,choice,choice1,1,0,0,5,3054,2813.2,14066,RM1.png,ready_t.png,RM1.png,RM11.png,RM5.png,RM8.png,RM13.png,RM2.png,77297
21320,19:04:32,9693,417935221,choice,choice3,0,0,1,6,1625,2615.333333,15692,RM1.png,cereal_t.png,BC12.png,BC1.png,BC2.png,BC4.png,BC8.png,BC5.png,79583
21320,19:04:32,9693,417935221,switch,choice3,0,0,1,6,1625,2615.333333,15692,BC12.png,cereal_t.png,BC12.png,BC1.png,BC2.png,BC4.png,BC8.png,BC5.png,81400
21320,19:04:32,9693,417935221,choice,choice6,0,0,1,7,5538,3033,21231,BC12.png,yog_t.png,Y8.png,Y12.png,Y2.png,Y11.png,Y10.png,Y3.png,87635
21320,19:04:32,9693,417935221,switch,choice6,0,0,1,7,5538,3033,21231,Y8.png,yog_t.png,Y8.png,Y12.png,Y2.png,Y11.png,Y10.png,Y3.png,88767
21320,19:04:32,9693,417935221,choice,choice3,0,0,1,8,718,2743.75,21950,Y8.png,crisps_t.png,C4.png,C7.png,C3.png,C12.png,C6.png,C9.png,90185
21320,19:04:32,9693,417935221,choice,choice3,0,0,1,9,3675,2847.333333,25626,Y8.png,soup_t.png,S5.png,S12.png,S9.png,S13.png,S3.png,S7.png,104604
21320,19:04:32,9693,417935221,switch,choice3,0,0,1,9,3675,2847.333333,25626,S5.png,soup_t.png,S5.png,S12.png,S9.png,S13.png,S3.png,S7.png,106077
21320,19:04:32,9693,417935221,choice,choice3,0,0,1,10,5462,3108.9,31089,S5.png,yog_t.png,Y8.png,Y4.png,Y3.png,Y2.png,Y10.png,Y11.png,112232
21320,19:04:32,9693,417935221,switch,choice3,0,1,1,10,5462,3108.9,31089,Y8.png,yog_t.png,Y8.png,Y4.png,Y3.png,Y2.png,Y10.png,Y11.png,117657
21320,19:04:32,9693,417935221,choice,choice5,0,1,1,11,1028,2919.818182,32118,Y8.png,yog_t.png,Y9.png,Y1.png,Y10.png,Y12.png,Y2.png,Y3.png,119373
21320,19:04:32,9693,417935221,switch,choice5,0,1,1,11,1028,2919.818182,32118,Y9.png,yog_t.png,Y9.png,Y1.png,Y10.png,Y12.png,Y2.png,Y3.png,120903
21320,19:04:32,9693,417935221,choice,choice3,0,1,1,12,388,2708.916667,32507,Y9.png,soup_t.png,S5.png,S12.png,S9.png,S3.png,S6.png,S13.png,121989
21320,19:04:32,9693,417935221,choice,choice3,0,1,1,13,2896,2723.384615,35404,Y9.png,sand_t.png,SW8.png,SW9.png,SW6.png,SW7.png,SW1.png,SW11.png,135653
21320,19:04:32,9693,417935221,switch,choice3,0,0,1,13,2896,2723.384615,35404,SW8.png,sand_t.png,SW8.png,SW9.png,SW6.png,SW7.png,SW1.png,SW11.png,137036
21320,19:04:32,9693,417935221,choice,choice5,0,0,1,14,3941,2810.428571,39346,SW8.png,crisps_t.png,C7.png,C5.png,C3.png,C2.png,C11.png,C12.png,141639
21320,19:04:32,9693,417935221,switch,choice5,0,0,1,14,3941,2810.428571,39346,C7.png,crisps_t.png,C7.png,C5.png,C3.png,C2.png,C11.png,C12.png,142896
21320,19:04:32,9693,417935221,choice,choice6,0,0,1,15,2833,2812,42180,C7.png,ready_t.png,RM1.png,RM11.png,RM5.png,RM7.png,RM13.png,RM2.png,146418
21320,19:04:32,9693,417935221,switch,choice6,0,0,1,15,2833,2812,42180,RM1.png,ready_t.png,RM1.png,RM11.png,RM5.png,RM7.png,RM13.png,RM2.png,148245
21320,19:04:32,9693,417935221,breaktime,choice6,0,0,1,15,2833,2812,42180,RM1.png,ready_t.png,RM1.png,RM11.png,RM5.png,RM7.png,RM13.png,RM2.png,150213
21320,19:04:32,9693,417935221,choice,choice2,0,0,1,16,2598,2798.6875,44779,RM1.png,cereal_t.png,BC12.png,BC9.png,BC2.png,BC6.png,BC5.png,BC8.png,153471
21320,19:04:32,9693,417935221,switch,choice2,0,0,1,16,2598,2798.6875,44779,BC12.png,cereal_t.png,BC12.png,BC9.png,BC2.png,BC6.png,BC5.png,BC8.png,154792
21320,19:04:32,9693,417935221,choice,choice6,0,0,1,17,2492,2780.705882,47272,BC12.png,soup_t.png,S13.png,S12.png,S9.png,S7.png,S3.png,S4.png,157964
21320,19:04:32,9693,417935221,switch,choice6,0,0,1,17,2492,2780.705882,47272,S13.png,soup_t.png,S13.png,S12.png,S9.png,S7.png,S3.png,S4.png,159285
21320,19:04:32,9693,417935221,choice,choice4,0,0,1,18,1858,2729.5,49131,S13.png,cereal_t.png,BC3.png,BC1.png,BC2.png,BC5.png,BC8.png,BC9.png,161829
21320,19:04:32,9693,417935221,switch,choice4,0,0,1,18,1858,2729.5,49131,BC3.png,cereal_t.png,BC3.png,BC1.png,BC2.png,BC5.png,BC8.png,BC9.png,163055
21320,19:04:32,9693,417935221,choice,choice4,0,0,1,19,1939,2687.947368,51071,BC3.png,ready_t.png,RM12.png,RM4.png,RM5.png,RM9.png,RM13.png,RM8.png,165680
21320,19:04:32,9693,417935221,switch,choice4,0,0,1,19,1939,2687.947368,51071,RM12.png,ready_t.png,RM12.png,RM4.png,RM5.png,RM9.png,RM13.png,RM8.png,166610
21320,19:04:32,9693,417935221,choice,choice1,1,0,0,20,2372,2672.2,53444,RM12.png,sand_t.png,SW4.png,SW9.png,SW6.png,SW7.png,SW8.png,SW11.png,169682
21320,19:04:32,9693,417935221,choice,choice1,1,0,0,21,236,2556.238095,53681,RM12.png,yog_t.png,Y8.png,Y1.png,Y3.png,Y12.png,Y10.png,Y2.png,170605
21320,19:04:32,9693,417935221,choice,choice2,0,0,1,22,2446,2551.272727,56128,RM12.png,soup_t.png,S6.png,S12.png,S9.png,S1.png,S4.png,S3.png,183815
21320,19:04:32,9693,417935221,switch,choice2,0,0,1,22,2446,2551.272727,56128,S6.png,soup_t.png,S6.png,S12.png,S9.png,S1.png,S4.png,S3.png,185234
21320,19:04:32,9693,417935221,choice,choice4,0,0,1,23,16099,3140.347826,72228,S6.png,cereal_t.png,BC3.png,BC11.png,BC2.png,BC12.png,BC8.png,BC1.png,201982
21320,19:04:32,9693,417935221,switch,choice4,0,0,1,23,16099,3140.347826,72228,BC3.png,cereal_t.png,BC3.png,BC11.png,BC2.png,BC12.png,BC8.png,BC1.png,203272
21320,19:04:32,9693,417935221,choice,choice3,0,0,1,24,3150,3140.791667,75379,BC3.png,ready_t.png,RM11.png,RM4.png,RM5.png,RM9.png,RM2.png,RM12.png,207112
21320,19:04:32,9693,417935221,switch,choice3,0,0,1,24,3150,3140.791667,75379,RM11.png,ready_t.png,RM11.png,RM4.png,RM5.png,RM9.png,RM2.png,RM12.png,208360
21320,19:04:32,9693,417935221,choice,choice4,0,0,1,25,911,3051.64,76291,RM11.png,sand_t.png,SW3.png,SW9.png,SW6.png,SW7.png,SW1.png,SW10.png,209956
21320,19:04:32,9693,417935221,choice,choice6,0,0,1,26,9493,3299.423077,85785,RM11.png,sand_t.png,SW10.png,SW11.png,SW6.png,SW7.png,SW1.png,SW8.png,230204
21320,19:04:32,9693,417935221,switch,choice6,0,0,1,26,9493,3299.423077,85785,SW10.png,sand_t.png,SW10.png,SW11.png,SW6.png,SW7.png,SW1.png,SW8.png,231774
21320,19:04:32,9693,417935221,choice,choice4,0,0,1,27,6763,3427.740741,92549,SW10.png,crisps_t.png,C4.png,C10.png,C3.png,C6.png,C2.png,C7.png,239204
21320,19:04:32,9693,417935221,switch,choice4,0,0,1,27,6763,3427.740741,92549,C4.png,crisps_t.png,C4.png,C10.png,C3.png,C6.png,C2.png,C7.png,241189
21320,19:04:32,9693,417935221,choice,choice5,0,0,1,28,7012,3555.785714,99562,C4.png,sand_t.png,SW4.png,SW9.png,SW6.png,SW7.png,SW3.png,SW5.png,248892
21320,19:04:32,9693,417935221,switch,choice5,0,0,1,28,7012,3555.785714,99562,SW4.png,sand_t.png,SW4.png,SW9.png,SW6.png,SW7.png,SW3.png,SW5.png,250303
21320,19:04:32,9693,417935221,choice,choice2,0,0,1,29,16063,3987.103448,115626,SW4.png,sand_t.png,SW8.png,SW9.png,SW6.png,SW7.png,SW1.png,SW11.png,267045
21320,19:04:32,9693,417935221,switch,choice2,0,0,1,29,16063,3987.103448,115626,SW8.png,sand_t.png,SW8.png,SW9.png,SW6.png,SW7.png,SW1.png,SW11.png,267977
21320,19:04:32,9693,417935221,choice,choice6,0,0,1,30,2944,3952.366667,118571,SW8.png,ready_t.png,RM11.png,RM4.png,RM5.png,RM9.png,RM2.png,RM12.png,271590
21320,19:04:32,9693,417935221,switch,choice6,0,0,1,30,2944,3952.366667,118571,RM11.png,ready_t.png,RM11.png,RM4.png,RM5.png,RM9.png,RM2.png,RM12.png,273023
21420,12:16:13,9889,689981398,choice,choice2,0,0,1,1,28424,28425,28425,RM1.png,ready_t.png,RM1.png,RM11.png,RM5.png,RM3.png,RM13.png,RM2.png,191051
21420,12:16:13,9889,689981398,switch,choice2,0,0,1,1,28424,28425,28425,RM1.png,ready_t.png,RM1.png,RM11.png,RM5.png,RM3.png,RM13.png,RM2.png,203586
21420,12:16:13,9889,689981398,choice,choice1,1,0,0,2,34604,31515,63030,RM1.png,cereal_t.png,BC3.png,BC11.png,BC2.png,BC9.png,BC8.png,BC1.png,238766
21420,12:16:13,9889,689981398,choice,choice3,0,0,1,3,11032,24687.66667,74063,RM1.png,soup_t.png,S13.png,S12.png,S9.png,S7.png,S3.png,S4.png,250364
21420,12:16:13,9889,689981398,switch,choice3,0,1,1,3,11032,24687.66667,74063,S13.png,soup_t.png,S13.png,S12.png,S9.png,S7.png,S3.png,S4.png,255977
21420,12:16:13,9889,689981398,choice,choice2,0,1,1,4,18198,23065.5,92262,S13.png,ready_t.png,RM1.png,RM11.png,RM5.png,RM7.png,RM13.png,RM2.png,274741
21420,12:16:13,9889,689981398,switch,choice2,0,0,1,4,18198,23065.5,92262,RM1.png,ready_t.png,RM1.png,RM11.png,RM5.png,RM7.png,RM13.png,RM2.png,282341
21420,12:16:13,9889,689981398,choice,choice1,1,0,0,5,10521,20556.8,102784,RM1.png,soup_t.png,S5.png,S12.png,S9.png,S3.png,S6.png,S13.png,293421
21420,12:16:13,9889,689981398,choice,choice1,1,0,0,6,10982,18961.16667,113767,RM1.png,yog_t.png,Y8.png,Y1.png,Y3.png,Y12.png,Y10.png,Y2.png,304961
21420,12:16:13,9889,689981398,choice,choice3,0,0,1,7,9860,17661.14286,123628,RM1.png,cereal_t.png,BC12.png,BC1.png,BC2.png,BC4.png,BC8.png,BC5.png,315385
21420,12:16:13,9889,689981398,switch,choice3,0,1,1,7,9860,17661.14286,123628,BC12.png,cereal_t.png,BC12.png,BC1.png,BC2.png,BC4.png,BC8.png,BC5.png,317893
21420,12:16:13,9889,689981398,choice,choice1,1,1,0,8,23844,18434.125,147473,BC12.png,sand_t.png,SW4.png,SW9.png,SW6.png,SW7.png,SW3.png,SW5.png,342299
21420,12:16:13,9889,689981398,choice,choice1,1,1,0,9,10090,17507.11111,157564,BC12.png,yog_t.png,Y8.png,Y4.png,Y3.png,Y2.png,Y10.png,Y11.png,352953
21420,12:16:13,9889,689981398,choice,choice6,0,1,1,10,5673,16323.8,163238,BC12.png,crisps_t.png,C4.png,C10.png,C3.png,C6.png,C2.png,C7.png,359199
21420,12:16:13,9889,689981398,switch,choice6,0,0,1,10,5673,16323.8,163238,C4.png,crisps_t.png,C4.png,C10.png,C3.png,C6.png,C2.png,C7.png,369626
21420,12:16:13,9889,689981398,choice,choice4,0,0,1,11,8401,15603.63636,171640,C4.png,ready_t.png,RM12.png,RM4.png,RM5.png,RM9.png,RM13.png,RM8.png,378588
21420,12:16:13,9889,689981398,switch,choice4,0,1,1,11,8401,15603.63636,171640,RM12.png,ready_t.png,RM12.png,RM4.png,RM5.png,RM9.png,RM13.png,RM8.png,387644
21420,12:16:13,9889,689981398,choice,choice1,1,1,0,12,11052,15224.41667,182693,RM12.png,yog_t.png,Y9.png,Y1.png,Y10.png,Y12.png,Y2.png,Y3.png,399249
21420,12:16:13,9889,689981398,choice,choice1,1,1,0,13,5873,14505.15385,188567,RM12.png,yog_t.png,Y6.png,Y13.png,Y12.png,Y10.png,Y2.png,Y3.png,405683
21420,12:16:13,9889,689981398,choice,choice2,0,1,1,14,12070,14331.28571,200638,RM12.png,ready_t.png,RM1.png,RM11.png,RM5.png,RM8.png,RM13.png,RM2.png,418310
21420,12:16:13,9889,689981398,switch,choice2,0,0,1,14,12070,14331.28571,200638,RM1.png,ready_t.png,RM1.png,RM11.png,RM5.png,RM8.png,RM13.png,RM2.png,421214
21420,12:16:13,9889,689981398,choice,choice3,0,0,1,15,8276,13927.66667,208915,RM1.png,cereal_t.png,BC12.png,BC9.png,BC2.png,BC6.png,BC5.png,BC8.png,430061
21420,12:16:13,9889,689981398,switch,choice3,0,1,1,15,8276,13927.66667,208915,BC12.png,cereal_t.png,BC12.png,BC9.png,BC2.png,BC6.png,BC5.png,BC8.png,432511
21420,12:16:13,9889,689981398,breaktime,choice3,0,1,1,15,8276,13927.66667,208915,BC12.png,cereal_t.png,BC12.png,BC9.png,BC2.png,BC6.png,BC5.png,BC8.png,438015
21420,12:16:13,9889,689981398,choice,choice1,1,1,0,16,8555,13591.9375,217471,BC12.png,yog_t.png,Y8.png,Y12.png,Y2.png,Y11.png,Y10.png,Y3.png,447134
21420,12:16:13,9889,689981398,choice,choice1,1,1,0,17,5522,13117.29412,222994,BC12.png,soup_t.png,S5.png,S9.png,S6.png,S10.png,S13.png,S3.png,453215
21420,12:16:13,9889,689981398,choice,choice1,1,1,0,18,11120,13006.38889,234115,BC12.png,cereal_t.png,BC3.png,BC1.png,BC2.png,BC5.png,BC8.png,BC9.png,464894
21420,12:16:13,9889,689981398,choice,choice4,0,1,1,19,8091,12747.73684,242207,BC12.png,sand_t.png,SW8.png,SW9.png,SW6.png,SW7.png,SW1.png,SW11.png,473545
21420,12:16:13,9889,689981398,switch,choice4,0,0,1,19,8091,12747.73684,242207,SW8.png,sand_t.png,SW8.png,SW9.png,SW6.png,SW7.png,SW1.png,SW11.png,476513
21420,12:16:13,9889,689981398,choice,choice3,0,0,1,20,7463,12483.55,249671,SW8.png,crisps_t.png,C7.png,C5.png,C3.png,C2.png,C11.png,C12.png,484545
21420,12:16:13,9889,689981398,switch,choice3,0,1,1,20,7463,12483.55,249671,C7.png,crisps_t.png,C7.png,C5.png,C3.png,C2.png,C11.png,C12.png,488069
21420,12:16:13,9889,689981398,choice,choice1,1,1,0,21,8064,12273.14286,257736,C7.png,sand_t.png,SW4.png,SW9.png,SW6.png,SW7.png,SW8.png,SW11.png,496693
21420,12:16:13,9889,689981398,choice,choice1,1,1,0,22,6538,12012.5,264275,C7.png,soup_t.png,S5.png,S12.png,S9.png,S13.png,S3.png,S7.png,503797
21420,12:16:13,9889,689981398,choice,choice4,0,1,1,23,11413,11986.47826,275689,C7.png,ready_t.png,RM11.png,RM4.png,RM5.png,RM9.png,RM2.png,RM12.png,515769
21420,12:16:13,9889,689981398,switch,choice4,0,0,1,23,11413,11986.47826,275689,RM11.png,ready_t.png,RM11.png,RM4.png,RM5.png,RM9.png,RM2.png,RM12.png,520922
21420,12:16:13,9889,689981398,choice,choice1,1,0,0,24,6355,11751.875,282045,RM11.png,crisps_t.png,C4.png,C7.png,C3.png,C12.png,C6.png,C9.png,527839
21420,12:16:13,9889,689981398,choice,choice1,1,0,0,25,9490,11661.44,291536,RM11.png,cereal_t.png,BC3.png,BC11.png,BC2.png,BC12.png,BC8.png,BC1.png,537888
21420,12:16:13,9889,689981398,choice,choice2,0,0,1,26,8816,11552.03846,300353,RM11.png,crisps_t.png,C8.png,C10.png,C5.png,C9.png,C2.png,C6.png,547260
21420,12:16:13,9889,689981398,switch,choice2,0,1,1,26,8816,11552.03846,300353,C8.png,crisps_t.png,C8.png,C10.png,C5.png,C9.png,C2.png,C6.png,549602
21420,12:16:13,9889,689981398,choice,choice4,0,1,1,27,13202,11613.18519,313556,C8.png,sand_t.png,SW10.png,SW11.png,SW6.png,SW7.png,SW1.png,SW8.png,563376
21420,12:16:13,9889,689981398,switch,choice4,0,1,1,27,13202,11613.18519,313556,SW10.png,sand_t.png,SW10.png,SW11.png,SW6.png,SW7.png,SW1.png,SW8.png,565832
21420,12:16:13,9889,689981398,choice,choice1,1,1,0,28,4929,11374.5,318486,SW10.png,cereal_t.png,BC3.png,BC11.png,BC2.png,BC9.png,BC8.png,BC1.png,571330
21420,12:16:13,9889,689981398,choice,choice1,1,1,0,29,7601,11244.41379,326088,SW10.png,crisps_t.png,C7.png,C5.png,C3.png,C2.png,C11.png,C12.png,579500
21420,12:16:13,9889,689981398,choice,choice1,1,1,0,30,6829,11097.26667,332918,SW10.png,yog_t.png,Y8.png,Y1.png,Y3.png,Y12.png,Y10.png,Y2.png,586892
21420,13:16:53,9880,8934637,choice,choice2,0,0,1,1,9578,9579,9579,RM1.png,ready_t.png,RM1.png,RM11.png,RM5.png,RM8.png,RM13.png,RM2.png,70796
21420,13:16:53,9880,8934637,switch,choice2,0,0,1,1,9578,9579,9579,RM1.png,ready_t.png,RM1.png,RM11.png,RM5.png,RM8.png,RM13.png,RM2.png,77422
21420,13:16:53,9880,8934637,choice,choice3,0,0,1,2,12044,10812,21624,RM1.png,sand_t.png,SW4.png,SW9.png,SW6.png,SW7.png,SW3.png,SW5.png,90028
21420,13:16:53,9880,8934637,switch,choice3,0,0,1,2,12044,10812,21624,SW4.png,sand_t.png,SW4.png,SW9.png,SW6.png,SW7.png,SW3.png,SW5.png,97547
21420,13:16:53,9880,8934637,choice,choice2,0,0,1,3,19558,13727.66667,41183,SW4.png,ready_t.png,RM1.png,RM11.png,RM5.png,RM3.png,RM13.png,RM2.png,117669
21420,13:16:53,9880,8934637,switch,choice2,0,0,1,3,19558,13727.66667,41183,RM1.png,ready_t.png,RM1.png,RM11.png,RM5.png,RM3.png,RM13.png,RM2.png,124507
21420,13:16:53,9880,8934637,choice,choice1,1,0,0,4,8920,12526,50104,RM1.png,yog_t.png,Y8.png,Y12.png,Y2.png,Y11.png,Y10.png,Y3.png,134004
21420,13:16:53,9880,8934637,choice,choice2,0,0,1,5,15799,13180.8,65904,RM1.png,yog_t.png,Y8.png,Y4.png,Y3.png,Y2.png,Y10.png,Y11.png,150373
21420,13:16:53,9880,8934637,switch,choice2,0,1,1,5,15799,13180.8,65904,Y8.png,yog_t.png,Y8.png,Y4.png,Y3.png,Y2.png,Y10.png,Y11.png,154334
21420,13:16:53,9880,8934637,choice,choice2,0,1,1,6,16281,13697.66667,82186,Y8.png,yog_t.png,Y9.png,Y1.png,Y10.png,Y12.png,Y2.png,Y3.png,171183
21420,13:16:53,9880,8934637,switch,choice2,0,0,1,6,16281,13697.66667,82186,Y9.png,yog_t.png,Y9.png,Y1.png,Y10.png,Y12.png,Y2.png,Y3.png,174877
21420,13:16:53,9880,8934637,choice,choice1,1,0,0,7,13701,13698.28571,95888,Y9.png,yog_t.png,Y8.png,Y1.png,Y3.png,Y12.png,Y10.png,Y2.png,189149
21420,13:16:53,9880,8934637,choice,choice1,1,0,0,8,11402,13411.375,107291,Y9.png,soup_t.png,S13.png,S12.png,S9.png,S7.png,S3.png,S4.png,201118
21420,13:16:53,9880,8934637,choice,choice3,0,0,1,9,13034,13369.55556,120326,Y9.png,sand_t.png,SW3.png,SW9.png,SW6.png,SW7.png,SW1.png,SW10.png,214721
21420,13:16:53,9880,8934637,switch,choice3,0,0,1,9,13034,13369.55556,120326,SW3.png,sand_t.png,SW3.png,SW9.png,SW6.png,SW7.png,SW1.png,SW10.png,219262
21420,13:16:53,9880,8934637,choice,choice1,1,0,0,10,20538,14086.5,140865,SW3.png,soup_t.png,S5.png,S9.png,S6.png,S10.png,S13.png,S3.png,240372
21420,13:16:53,9880,8934637,choice,choice1,1,0,0,11,20288,14650.36364,161154,SW3.png,cereal_t.png,BC3.png,BC11.png,BC2.png,BC12.png,BC8.png,BC1.png,261233
21420,13:16:53,9880,8934637,choice,choice3,0,0,1,12,10277,14286,171432,SW3.png,cereal_t.png,BC12.png,BC9.png,BC2.png,BC6.png,BC5.png,BC8.png,272084
21420,13:16:53,9880,8934637,switch,choice3,0,1,1,12,10277,14286,171432,BC12.png,cereal_t.png,BC12.png,BC9.png,BC2.png,BC6.png,BC5.png,BC8.png,275649
21420,13:16:53,9880,8934637,choice,choice1,1,1,0,13,15459,14376.30769,186892,BC12.png,soup_t.png,S5.png,S12.png,S9.png,S13.png,S3.png,S7.png,291683
21420,13:16:53,9880,8934637,choice,choice3,0,1,1,14,12670,14254.5,199563,BC12.png,crisps_t.png,C8.png,C10.png,C5.png,C9.png,C2.png,C6.png,304928
21420,13:16:53,9880,8934637,switch,choice3,0,0,1,14,12670,14254.5,199563,C8.png,crisps_t.png,C8.png,C10.png,C5.png,C9.png,C2.png,C6.png,308464
21420,13:16:53,9880,8934637,choice,choice2,0,0,1,15,14800,14290.93333,214364,C8.png,crisps_t.png,C7.png,C5.png,C3.png,C2.png,C11.png,C12.png,323840
21420,13:16:53,9880,8934637,switch,choice2,0,1,1,15,14800,14290.93333,214364,C7.png,crisps_t.png,C7.png,C5.png,C3.png,C2.png,C11.png,C12.png,325857
21420,13:16:53,9880,8934637,breaktime,choice2,0,1,1,15,14800,14290.93333,214364,C7.png,crisps_t.png,C7.png,C5.png,C3.png,C2.png,C11.png,C12.png,328616
21420,13:16:53,9880,8934637,choice,choice4,0,1,1,16,8300,13916.5625,222665,C7.png,ready_t.png,RM12.png,RM4.png,RM5.png,RM9.png,RM13.png,RM8.png,337486
21420,13:16:53,9880,8934637,switch,choice4,0,0,1,16,8300,13916.5625,222665,RM12.png,ready_t.png,RM12.png,RM4.png,RM5.png,RM9.png,RM13.png,RM8.png,339115
21420,13:16:53,9880,8934637,choice,choice3,0,0,1,17,9738,13670.82353,232404,RM12.png,cereal_t.png,BC12.png,BC1.png,BC2.png,BC4.png,BC8.png,BC5.png,349413
21420,13:16:53,9880,8934637,switch,choice3,0,1,1,17,9738,13670.82353,232404,BC12.png,cereal_t.png,BC12.png,BC1.png,BC2.png,BC4.png,BC8.png,BC5.png,351843
21420,13:16:53,9880,8934637,choice,choice1,1,1,0,18,14976,13743.38889,247381,BC12.png,soup_t.png,S5.png,S12.png,S9.png,S3.png,S6.png,S13.png,367386
21420,13:16:53,9880,8934637,choice,choice1,1,1,0,19,17071,13918.57895,264453,BC12.png,yog_t.png,Y6.png,Y13.png,Y12.png,Y10.png,Y2.png,Y3.png,385032
21420,13:16:53,9880,8934637,choice,choice1,1,1,0,20,6298,13537.6,270752,BC12.png,sand_t.png,SW4.png,SW9.png,SW6.png,SW7.png,SW8.png,SW11.png,391891
21420,13:16:53,9880,8934637,choice,choice1,1,1,0,21,24662,14067.38095,295415,BC12.png,cereal_t.png,BC3.png,BC1.png,BC2.png,BC5.png,BC8.png,BC9.png,417114
21420,13:16:53,9880,8934637,choice,choice3,0,1,1,22,27191,14663.95455,322607,BC12.png,sand_t.png,SW8.png,SW9.png,SW6.png,SW7.png,SW1.png,SW11.png,444867
21420,13:16:53,9880,8934637,switch,choice3,0,0,1,22,27191,14663.95455,322607,SW8.png,sand_t.png,SW8.png,SW9.png,SW6.png,SW7.png,SW1.png,SW11.png,449462
21420,13:16:53,9880,8934637,choice,choice2,0,0,1,23,6280,14299.47826,328888,SW8.png,crisps_t.png,C4.png,C10.png,C3.png,C6.png,C2.png,C7.png,456305
21420,13:16:53,9880,8934637,switch,choice2,0,1,1,23,6280,14299.47826,328888,C4.png,crisps_t.png,C4.png,C10.png,C3.png,C6.png,C2.png,C7.png,458782
21420,13:16:53,9880,8934637,choice,choice2,0,1,1,24,18037,14455.25,346926,C4.png,ready_t.png,RM1.png,RM11.png,RM5.png,RM7.png,RM13.png,RM2.png,477386
21420,13:16:53,9880,8934637,switch,choice2,0,0,1,24,18037,14455.25,346926,RM1.png,ready_t.png,RM1.png,RM11.png,RM5.png,RM7.png,RM13.png,RM2.png,479146
21420,13:16:53,9880,8934637,choice,choice1,1,0,0,25,7138,14162.6,354065,RM1.png,cereal_t.png,BC3.png,BC11.png,BC2.png,BC9.png,BC8.png,BC1.png,486849
21420,13:16:53,9880,8934637,choice,choice4,0,0,1,26,4709,13799.03846,358775,RM1.png,ready_t.png,RM11.png,RM4.png,RM5.png,RM9.png,RM2.png,RM12.png,492128
21420,13:16:53,9880,8934637,switch,choice4,0,0,1,26,4709,13799.03846,358775,RM11.png,ready_t.png,RM11.png,RM4.png,RM5.png,RM9.png,RM2.png,RM12.png,493781
21420,13:16:53,9880,8934637,choice,choice2,0,0,1,27,11618,13718.2963,370394,RM11.png,crisps_t.png,C4.png,C10.png,C3.png,C2.png,C9.png,C6.png,505963
21420,13:16:53,9880,8934637,switch,choice2,0,0,1,27,11618,13718.2963,370394,C4.png,crisps_t.png,C4.png,C10.png,C3.png,C2.png,C9.png,C6.png,507745
21420,13:16:53,9880,8934637,choice,choice2,0,0,1,28,33137,14411.85714,403532,C4.png,crisps_t.png,C4.png,C10.png,C3.png,C2.png,C9.png,C6.png,541450
21420,13:16:53,9880,8934637,switch,choice2,0,0,1,28,33137,14411.85714,403532,C4.png,crisps_t.png,C4.png,C10.png,C3.png,C2.png,C9.png,C6.png,542764
21420,13:16:53,9880,8934637,choice,choice3,0,0,1,29,10972,14293.27586,414505,C4.png,crisps_t.png,C8.png,C10.png,C5.png,C9.png,C2.png,C6.png,554299
21420,13:16:53,9880,8934637,switch,choice3,0,0,1,29,10972,14293.27586,414505,C8.png,crisps_t.png,C8.png,C10.png,C5.png,C9.png,C2.png,C6.png,555959
21420,13:16:53,9880,8934637,choice,choice1,1,0,0,30,10471,14165.9,424977,C8.png,crisps_t.png,C4.png,C7.png,C3.png,C12.png,C6.png,C9.png,567006
21420,14:56:51,8857,975210394,choice,choice1,1,0,0,1,7433,7434,7434,RM1.png,cereal_t.png,BC3.png,BC1.png,BC2.png,BC5.png,BC8.png,BC9.png,79511
21420,14:56:51,8857,975210394,choice,choice2,0,0,1,2,12571,10003,20006,RM1.png,crisps_t.png,C4.png,C10.png,C3.png,C6.png,C2.png,C7.png,92657
21420,14:56:51,8857,975210394,switch,choice2,0,0,1,2,12571,10003,20006,C4.png,crisps_t.png,C4.png,C10.png,C3.png,C6.png,C2.png,C7.png,101645
21420,14:56:51,8857,975210394,choice,choice2,0,0,1,3,18191,12732.66667,38198,C4.png,crisps_t.png,C8.png,C10.png,C5.png,C9.png,C2.png,C6.png,120405
21420,14:56:51,8857,975210394,switch,choice2,0,0,1,3,18191,12732.66667,38198,C8.png,crisps_t.png,C8.png,C10.png,C5.png,C9.png,C2.png,C6.png,124323
21420,14:56:51,8857,975210394,choice,choice1,1,0,0,4,13452,12912.75,51651,C8.png,yog_t.png,Y8.png,Y12.png,Y2.png,Y11.png,Y10.png,Y3.png,138343
21420,14:56:51,8857,975210394,choice,choice1,1,0,0,5,12962,12922.8,64614,C8.png,soup_t.png,S5.png,S9.png,S6.png,S10.png,S13.png,S3.png,151875
21420,14:56:51,8857,975210394,choice,choice1,1,0,0,6,8540,12192.5,73155,C8.png,cereal_t.png,BC3.png,BC11.png,BC2.png,BC12.png,BC8.png,BC1.png,160987
21420,14:56:51,8857,975210394,choice,choice1,1,0,0,7,16177,12761.85714,89333,C8.png,yog_t.png,Y9.png,Y1.png,Y10.png,Y12.png,Y2.png,Y3.png,177734
21420,14:56:51,8857,975210394,choice,choice3,0,0,1,8,15951,13160.625,105285,C8.png,sand_t.png,SW8.png,SW9.png,SW6.png,SW7.png,SW1.png,SW11.png,194256
21420,14:56:51,8857,975210394,switch,choice3,0,0,1,8,15951,13160.625,105285,SW8.png,sand_t.png,SW8.png,SW9.png,SW6.png,SW7.png,SW1.png,SW11.png,202041
21420,14:56:51,8857,975210394,choice,choice3,0,0,1,9,9802,12787.55556,115088,SW8.png,cereal_t.png,BC12.png,BC1.png,BC2.png,BC4.png,BC8.png,BC5.png,212416
21420,14:56:51,8857,975210394,switch,choice3,0,0,1,9,9802,12787.55556,115088,BC12.png,cereal_t.png,BC12.png,BC1.png,BC2.png,BC4.png,BC8.png,BC5.png,215425
21420,14:56:51,8857,975210394,choice,choice4,0,0,1,10,19894,13498.3,134983,BC12.png,ready_t.png,RM1.png,RM11.png,RM5.png,RM7.png,RM13.png,RM2.png,235894
21420,14:56:51,8857,975210394,switch,choice4,0,0,1,10,19894,13498.3,134983,RM1.png,ready_t.png,RM1.png,RM11.png,RM5.png,RM7.png,RM13.png,RM2.png,237670
21420,14:56:51,8857,975210394,choice,choice3,0,0,1,11,15881,13715,150865,RM1.png,sand_t.png,SW4.png,SW9.png,SW6.png,SW7.png,SW8.png,SW11.png,254126
21420,14:56:51,8857,975210394,switch,choice3,0,0,1,11,15881,13715,150865,SW4.png,sand_t.png,SW4.png,SW9.png,SW6.png,SW7.png,SW8.png,SW11.png,256106
21420,14:56:51,8857,975210394,choice,choice2,0,0,1,12,12041,13575.58333,162907,SW4.png,ready_t.png,RM1.png,RM11.png,RM5.png,RM3.png,RM13.png,RM2.png,268718
