date,time,subject,group,trialcode,trial.choice.response,trial.choice.correct,values.switch,values.subopt,values.trial_num,trial.choice.latency,expressions.mean_rt,values.rt,picture.switch.currentitem,picture.foodtype.currentitem,picture.choice1.currentitem,picture.choice2.currentitem,picture.choice3.currentitem,picture.choice4.currentitem,picture.choice5.currentitem,picture.choice6.currentitem,script.elapsedtime
21020,14:33:57,9696,904953983,choice,choice3,0,0,1,1,1493,1494,1494,RM11.png,soup_t.png,S5.png,S9.png,S6.png,S10.png,S13.png,S3.png,26542
21020,14:33:57,9696,904953983,switch,choice3,0,0,1,1,1493,1494,1494,S5.png,soup_t.png,S5.png,S9.png,S6.png,S10.png,S13.png,S3.png,34515
21020,14:33:57,9696,904953983,choice,choice3,0,0,1,2,2439,1967,3934,S5.png,cereal_t.png,BC11.png,BC3.png,BC2.png,BC9.png,BC8.png,BC1.png,37583
21020,14:33:57,9696,904953983,switch,choice3,0,0,1,2,2439,1967,3934,BC11.png,cereal_t.png,BC11.png,BC3.png,BC2.png,BC9.png,BC8.png,BC1.png,40107
21020,14:33:57,9696,904953983,choice,choice3,0,0,1,3,5250,3061.666667,9185,BC11.png,sand_t.png,SW9.png,SW4.png,SW6.png,SW7.png,SW3.png,SW5.png,45984
21020,14:33:57,9696,904953983,switch,choice3,0,0,1,3,5250,3061.666667,9185,SW9.png,sand_t.png,SW9.png,SW4.png,SW6.png,SW7.png,SW3.png,SW5.png,47851
21020,14:33:57,9696,904953983,choice,choice6,0,0,1,4,8819,4501.25,18005,SW9.png,crisps_t.png,C10.png,C4.png,C3.png,C6.png,C2.png,C7.png,57293
21020,14:33:57,9696,904953983,switch,choice6,0,0,1,4,8819,4501.25,18005,C10.png,crisps_t.png,C10.png,C4.png,C3.png,C6.png,C2.png,C7.png,58395
21020,14:33:57,9696,904953983,choice,choice2,0,0,1,5,1626,3926.4,19632,C10.png,cereal_t.png,BC9.png,BC12.png,BC2.png,BC6.png,BC5.png,BC8.png,60644
21020,14:33:57,9696,904953983,switch,choice2,0,0,1,5,1626,3926.4,19632,BC9.png,cereal_t.png,BC9.png,BC12.png,BC2.png,BC6.png,BC5.png,BC8.png,61699
21020,14:33:57,9696,904953983,choice,choice1,1,0,0,6,1026,3443.166667,20659,BC9.png,ready_t.png,RM11.png,RM1.png,RM5.png,RM3.png,RM13.png,RM2.png,63348
21020,14:33:57,9696,904953983,choice,choice3,0,0,1,7,3646,3472.285714,24306,BC9.png,sand_t.png,SW9.png,SW3.png,SW6.png,SW7.png,SW1.png,SW10.png,67620
21020,14:33:57,9696,904953983,switch,choice3,0,0,1,7,3646,3472.285714,24306,SW9.png,sand_t.png,SW9.png,SW3.png,SW6.png,SW7.png,SW1.png,SW10.png,69483
21020,14:33:57,9696,904953983,choice,choice4,0,0,1,8,915,3152.75,25222,SW9.png,ready_t.png,RM4.png,RM11.png,RM5.png,RM9.png,RM2.png,RM12.png,71012
21020,14:33:57,9696,904953983,choice,choice1,1,0,0,9,11623,4094,36846,SW9.png,yog_t.png,Y1.png,Y9.png,Y10.png,Y12.png,Y2.png,Y3.png,93300
21020,14:33:57,9696,904953983,choice,choice1,1,0,0,10,7400,4424.7,44247,SW9.png,yog_t.png,Y4.png,Y8.png,Y3.png,Y2.png,Y10.png,Y11.png,101324
21020,14:33:57,9696,904953983,choice,choice2,0,0,1,11,8566,4801.272727,52814,SW9.png,sand_t.png,SW9.png,SW4.png,SW6.png,SW7.png,SW8.png,SW11.png,110519
21020,14:33:57,9696,904953983,switch,choice2,0,0,1,11,8566,4801.272727,52814,SW9.png,sand_t.png,SW9.png,SW4.png,SW6.png,SW7.png,SW8.png,SW11.png,112539
21020,14:33:57,9696,904953983,choice,choice1,1,0,0,12,2305,4593.333333,55120,SW9.png,ready_t.png,RM11.png,RM1.png,RM5.png,RM8.png,RM13.png,RM2.png,115469
21020,14:33:57,9696,904953983,choice,choice3,0,0,1,13,2346,4420.538462,57467,SW9.png,cereal_t.png,BC1.png,BC12.png,BC2.png,BC4.png,BC8.png,BC5.png,118428
21020,14:33:57,9696,904953983,switch,choice3,0,0,1,13,2346,4420.538462,57467,BC1.png,cereal_t.png,BC1.png,BC12.png,BC2.png,BC4.png,BC8.png,BC5.png,120451
21020,14:33:57,9696,904953983,choice,choice1,1,0,0,14,8357,4701.785714,65825,BC1.png,crisps_t.png,C10.png,C4.png,C3.png,C2.png,C9.png,C6.png,129428
21020,14:33:57,9696,904953983,choice,choice2,0,0,1,15,2187,4534.2,68013,BC1.png,cereal_t.png,BC11.png,BC3.png,BC2.png,BC12.png,BC8.png,BC1.png,132252
21020,14:33:57,9696,904953983,switch,choice2,0,1,1,15,2187,4534.2,68013,BC11.png,cereal_t.png,BC11.png,BC3.png,BC2.png,BC12.png,BC8.png,BC1.png,134123
21020,14:33:57,9696,904953983,breaktime,choice2,0,1,1,15,2187,4534.2,68013,BC11.png,cereal_t.png,BC11.png,BC3.png,BC2.png,BC12.png,BC8.png,BC1.png,136201
21020,14:33:57,9696,904953983,choice,choice4,0,1,1,16,2077,4380.6875,70091,BC11.png,ready_t.png,RM4.png,RM12.png,RM5.png,RM9.png,RM13.png,RM8.png,138900
21020,14:33:57,9696,904953983,switch,choice4,0,0,1,16,2077,4380.6875,70091,RM4.png,ready_t.png,RM4.png,RM12.png,RM5.png,RM9.png,RM13.png,RM8.png,141019
21020,14:33:57,9696,904953983,choice,choice1,1,0,0,17,6175,4486.294118,76267,RM4.png,ready_t.png,RM11.png,RM1.png,RM5.png,RM7.png,RM13.png,RM2.png,147820
21020,14:33:57,9696,904953983,choice,choice2,0,0,1,18,7769,4668.722222,84037,RM4.png,yog_t.png,Y1.png,Y8.png,Y3.png,Y12.png,Y10.png,Y2.png,156204
21020,14:33:57,9696,904953983,switch,choice2,0,1,1,18,7769,4668.722222,84037,Y1.png,yog_t.png,Y1.png,Y8.png,Y3.png,Y12.png,Y10.png,Y2.png,159243
21020,14:33:57,9696,904953983,choice,choice3,0,1,1,19,1787,4517.105263,85825,Y1.png,crisps_t.png,C10.png,C8.png,C5.png,C9.png,C2.png,C6.png,161652
21020,14:33:57,9696,904953983,switch,choice3,0,1,1,19,1787,4517.105263,85825,C10.png,crisps_t.png,C10.png,C8.png,C5.png,C9.png,C2.png,C6.png,162907
21020,14:33:57,9696,904953983,choice,choice2,0,1,1,20,3332,4457.9,89158,C10.png,yog_t.png,Y12.png,Y8.png,Y2.png,Y11.png,Y10.png,Y3.png,166868
21020,14:33:57,9696,904953983,switch,choice2,0,0,1,20,3332,4457.9,89158,Y12.png,yog_t.png,Y12.png,Y8.png,Y2.png,Y11.png,Y10.png,Y3.png,168587
21020,14:33:57,9696,904953983,choice,choice2,0,0,1,21,5779,4520.857143,94938,Y12.png,yog_t.png,Y13.png,Y6.png,Y12.png,Y10.png,Y2.png,Y3.png,174988
21020,14:33:57,9696,904953983,switch,choice2,0,0,1,21,5779,4520.857143,94938,Y13.png,yog_t.png,Y13.png,Y6.png,Y12.png,Y10.png,Y2.png,Y3.png,176707
21020,14:33:57,9696,904953983,choice,choice1,1,0,0,22,2045,4408.363636,96984,Y13.png,soup_t.png,S12.png,S6.png,S9.png,S1.png,S4.png,S3.png,179380
21020,14:33:57,9696,904953983,choice,choice6,0,0,1,23,3224,4356.913043,100209,Y13.png,sand_t.png,SW9.png,SW8.png,SW6.png,SW7.png,SW1.png,SW11.png,183228
21020,14:33:57,9696,904953983,switch,choice6,0,0,1,23,3224,4356.913043,100209,SW9.png,sand_t.png,SW9.png,SW8.png,SW6.png,SW7.png,SW1.png,SW11.png,184859
21020,14:33:57,9696,904953983,choice,choice2,0,0,1,24,5463,4403.041667,105673,SW9.png,soup_t.png,S12.png,S5.png,S9.png,S3.png,S6.png,S13.png,190942
21020,14:33:57,9696,904953983,switch,choice2,0,0,1,24,5463,4403.041667,105673,S12.png,soup_t.png,S12.png,S5.png,S9.png,S3.png,S6.png,S13.png,192363
21020,14:33:57,9696,904953983,choice,choice1,1,0,0,25,4938,4424.48,110612,S12.png,sand_t.png,SW11.png,SW10.png,SW6.png,SW7.png,SW1.png,SW8.png,197926
21020,14:33:57,9696,904953983,choice,choice2,0,0,1,26,6142,4490.576923,116755,S12.png,cereal_t.png,BC1.png,BC3.png,BC2.png,BC5.png,BC8.png,BC9.png,204684
21020,14:33:57,9696,904953983,switch,choice2,0,0,1,26,6142,4490.576923,116755,BC1.png,cereal_t.png,BC1.png,BC3.png,BC2.png,BC5.png,BC8.png,BC9.png,206283
21020,14:33:57,9696,904953983,choice,choice1,1,0,0,27,2383,4412.555556,119139,BC1.png,crisps_t.png,C5.png,C7.png,C3.png,C2.png,C11.png,C12.png,209287
21020,14:33:57,9696,904953983,choice,choice3,0,0,1,28,2875,4357.678571,122015,BC1.png,sand_t.png,SW9.png,SW3.png,SW6.png,SW7.png,SW1.png,SW10.png,212781
21020,14:33:57,9696,904953983,switch,choice3,0,0,1,28,2875,4357.678571,122015,SW9.png,sand_t.png,SW9.png,SW3.png,SW6.png,SW7.png,SW1.png,SW10.png,214203
21020,14:33:57,9696,904953983,choice,choice4,0,0,1,29,1569,4261.551724,123585,SW9.png,ready_t.png,RM4.png,RM12.png,RM5.png,RM9.png,RM13.png,RM8.png,216396
21020,14:33:57,9696,904953983,switch,choice4,0,0,1,29,1569,4261.551724,123585,RM4.png,ready_t.png,RM4.png,RM12.png,RM5.png,RM9.png,RM13.png,RM8.png,219587
21020,14:33:57,9696,904953983,choice,choice1,1,0,0,30,2524,4203.666667,126110,RM4.png,yog_t.png,Y13.png,Y6.png,Y12.png,Y10.png,Y2.png,Y3.png,222744
21020,15:58:58,9730,997001336,choice,choice2,0,0,1,1,13453,13454,13454,RM11.png,yog_t.png,Y4.png,Y8.png,Y3.png,Y2.png,Y10.png,Y11.png,78573
21020,15:58:58,9730,997001336,switch,choice2,0,1,1,1,13453,13454,13454,Y4.png,yog_t.png,Y4.png,Y8.png,Y3.png,Y2.png,Y10.png,Y11.png,87356
21020,15:58:58,9730,997001336,choice,choice4,0,1,1,2,6691,10073,20146,Y4.png,ready_t.png,RM4.png,RM12.png,RM5.png,RM9.png,RM13.png,RM8.png,94668
21020,15:58:58,9730,997001336,switch,choice4,0,0,1,2,6691,10073,20146,RM4.png,ready_t.png,RM4.png,RM12.png,RM5.png,RM9.png,RM13.png,RM8.png,98922
21020,15:58:58,9730,997001336,choice,choice4,0,0,1,3,5840,8662.333333,25987,RM4.png,ready_t.png,RM4.png,RM11.png,RM5.png,RM9.png,RM2.png,RM12.png,105378
21020,15:58:58,9730,997001336,switch,choice4,0,0,1,3,5840,8662.333333,25987,RM4.png,ready_t.png,RM4.png,RM11.png,RM5.png,RM9.png,RM2.png,RM12.png,106825
21020,15:58:58,9730,997001336,choice,choice2,0,0,1,4,7277,8316.25,33265,RM4.png,cereal_t.png,BC11.png,BC3.png,BC2.png,BC12.png,BC8.png,BC1.png,114721
21020,15:58:58,9730,997001336,switch,choice2,0,0,1,4,7277,8316.25,33265,BC11.png,cereal_t.png,BC11.png,BC3.png,BC2.png,BC12.png,BC8.png,BC1.png,116592
21020,15:58:58,9730,997001336,choice,choice3,0,0,1,5,15824,9818,49090,BC11.png,sand_t.png,SW9.png,SW3.png,SW6.png,SW7.png,SW1.png,SW10.png,133038
21020,15:58:58,9730,997001336,switch,choice3,0,0,1,5,15824,9818,49090,SW9.png,sand_t.png,SW9.png,SW3.png,SW6.png,SW7.png,SW1.png,SW10.png,134672
21020,15:58:58,9730,997001336,choice,choice3,0,0,1,6,18163,11209,67254,SW9.png,sand_t.png,SW9.png,SW8.png,SW6.png,SW7.png,SW1.png,SW11.png,153455
21020,15:58:58,9730,997001336,switch,choice3,0,0,1,6,18163,11209,67254,SW9.png,sand_t.png,SW9.png,SW8.png,SW6.png,SW7.png,SW1.png,SW11.png,155729
21020,15:58:58,9730,997001336,choice,choice1,1,0,0,7,12235,11355.71429,79490,SW9.png,ready_t.png,RM11.png,RM1.png,RM5.png,RM8.png,RM13.png,RM2.png,168581
21020,15:58:58,9730,997001336,choice,choice6,0,0,1,8,9833,11165.5,89324,SW9.png,sand_t.png,SW11.png,SW10.png,SW6.png,SW7.png,SW1.png,SW8.png,179031
21020,15:58:58,9730,997001336,switch,choice6,0,1,1,8,9833,11165.5,89324,SW11.png,sand_t.png,SW11.png,SW10.png,SW6.png,SW7.png,SW1.png,SW8.png,182573
21020,15:58:58,9730,997001336,choice,choice1,1,1,0,9,6110,10603.88889,95435,SW11.png,soup_t.png,S5.png,S9.png,S6.png,S10.png,S13.png,S3.png,189299
21020,15:58:58,9730,997001336,choice,choice3,0,1,1,10,6060,10149.6,101496,SW11.png,cereal_t.png,BC9.png,BC12.png,BC2.png,BC6.png,BC5.png,BC8.png,195984
21020,15:58:58,9730,997001336,switch,choice3,0,0,1,10,6060,10149.6,101496,BC9.png,cereal_t.png,BC9.png,BC12.png,BC2.png,BC6.png,BC5.png,BC8.png,198503
21020,15:58:58,9730,997001336,choice,choice2,0,0,1,11,5445,9722,106942,BC9.png,yog_t.png,Y1.png,Y8.png,Y3.png,Y12.png,Y10.png,Y2.png,204575
21020,15:58:58,9730,997001336,switch,choice2,0,1,1,11,5445,9722,106942,Y1.png,yog_t.png,Y1.png,Y8.png,Y3.png,Y12.png,Y10.png,Y2.png,206636
21020,15:58:58,9730,997001336,choice,choice1,1,1,0,12,4739,9306.833333,111682,Y1.png,crisps_t.png,C5.png,C7.png,C3.png,C2.png,C11.png,C12.png,212004
21020,15:58:58,9730,997001336,choice,choice2,0,1,1,13,1871,8734.923077,113554,Y1.png,soup_t.png,S12.png,S5.png,S9.png,S3.png,S6.png,S13.png,214492
21020,15:58:58,9730,997001336,switch,choice2,0,0,1,13,1871,8734.923077,113554,S12.png,soup_t.png,S12.png,S5.png,S9.png,S3.png,S6.png,S13.png,217779
21020,15:58:58,9730,997001336,choice,choice6,0,0,1,14,4318,8419.5,117873,S12.png,sand_t.png,SW9.png,SW4.png,SW6.png,SW7.png,SW8.png,SW11.png,222721
21020,15:58:58,9730,997001336,switch,choice6,0,0,1,14,4318,8419.5,117873,SW9.png,sand_t.png,SW9.png,SW4.png,SW6.png,SW7.png,SW8.png,SW11.png,226200
21020,15:58:58,9730,997001336,choice,choice4,0,0,1,15,5586,8230.666667,123460,SW9.png,ready_t.png,RM11.png,RM1.png,RM5.png,RM7.png,RM13.png,RM2.png,232410
21020,15:58:58,9730,997001336,switch,choice4,0,0,1,15,5586,8230.666667,123460,RM11.png,ready_t.png,RM11.png,RM1.png,RM5.png,RM7.png,RM13.png,RM2.png,235339
21020,15:58:58,9730,997001336,breaktime,choice4,0,0,1,15,5586,8230.666667,123460,RM11.png,ready_t.png,RM11.png,RM1.png,RM5.png,RM7.png,RM13.png,RM2.png,237146
21020,15:58:58,9730,997001336,choice,choice3,0,0,1,16,1474,7808.4375,124935,RM11.png,soup_t.png,S12.png,S13.png,S9.png,S7.png,S3.png,S4.png,239241
21020,15:58:58,9730,997001336,switch,choice3,0,1,1,16,1474,7808.4375,124935,S12.png,soup_t.png,S12.png,S13.png,S9.png,S7.png,S3.png,S4.png,240632
21020,15:58:58,9730,997001336,choice,choice1,1,1,0,17,5197,7654.882353,130133,S12.png,crisps_t.png,C10.png,C4.png,C3.png,C6.png,C2.png,C7.png,246450
21020,15:58:58,9730,997001336,choice,choice2,0,1,1,18,7267,7633.388889,137401,S12.png,crisps_t.png,C7.png,C4.png,C3.png,C12.png,C6.png,C9.png,254339
21020,15:58:58,9730,997001336,switch,choice2,0,0,1,18,7267,7633.388889,137401,C7.png,crisps_t.png,C7.png,C4.png,C3.png,C12.png,C6.png,C9.png,256390
21020,15:58:58,9730,997001336,choice,choice2,0,0,1,19,1959,7334.789474,139361,C7.png,cereal_t.png,BC1.png,BC3.png,BC2.png,BC5.png,BC8.png,BC9.png,258968
21020,15:58:58,9730,997001336,switch,choice2,0,0,1,19,1959,7334.789474,139361,BC1.png,cereal_t.png,BC1.png,BC3.png,BC2.png,BC5.png,BC8.png,BC9.png,261120
21020,15:58:58,9730,997001336,choice,choice3,0,0,1,20,2265,7081.35,141627,BC1.png,cereal_t.png,BC1.png,BC12.png,BC2.png,BC4.png,BC8.png,BC5.png,264025
21020,15:58:58,9730,997001336,switch,choice3,0,0,1,20,2265,7081.35,141627,BC1.png,cereal_t.png,BC1.png,BC12.png,BC2.png,BC4.png,BC8.png,BC5.png,265628
21020,15:58:58,9730,997001336,choice,choice3,0,0,1,21,5078,6986,146706,BC1.png,soup_t.png,S12.png,S5.png,S9.png,S13.png,S3.png,S7.png,271331
21020,15:58:58,9730,997001336,switch,choice3,0,1,1,21,5078,6986,146706,S12.png,soup_t.png,S12.png,S5.png,S9.png,S13.png,S3.png,S7.png,275570
21020,15:58:58,9730,997001336,choice,choice3,0,1,1,22,2289,6772.545455,148996,S12.png,cereal_t.png,BC11.png,BC3.png,BC2.png,BC9.png,BC8.png,BC1.png,278493
21020,15:58:58,9730,997001336,switch,choice3,0,0,1,22,2289,6772.545455,148996,BC11.png,cereal_t.png,BC11.png,BC3.png,BC2.png,BC9.png,BC8.png,BC1.png,279955
21020,15:58:58,9730,997001336,choice,choice3,0,0,1,23,2185,6573.130435,151182,BC11.png,crisps_t.png,C10.png,C8.png,C5.png,C9.png,C2.png,C6.png,282755
21020,15:58:58,9730,997001336,switch,choice3,0,0,1,23,2185,6573.130435,151182,C10.png,crisps_t.png,C10.png,C8.png,C5.png,C9.png,C2.png,C6.png,283931
21020,15:58:58,9730,997001336,choice,choice1,1,0,0,24,7916,6629.125,159099,C10.png,soup_t.png,S12.png,S6.png,S9.png,S1.png,S4.png,S3.png,292468
21020,15:58:58,9730,997001336,choice,choice2,0,0,1,25,2521,6464.84,161621,C10.png,yog_t.png,Y1.png,Y9.png,Y10.png,Y12.png,Y2.png,Y3.png,295611
21020,15:58:58,9730,997001336,switch,choice2,0,1,1,25,2521,6464.84,161621,Y1.png,yog_t.png,Y1.png,Y9.png,Y10.png,Y12.png,Y2.png,Y3.png,297312
21020,15:58:58,9730,997001336,choice,choice1,1,1,0,26,2921,6328.576923,164543,Y1.png,ready_t.png,RM11.png,RM1.png,RM5.png,RM3.png,RM13.png,RM2.png,300848
21020,15:58:58,9730,997001336,choice,choice1,1,1,0,27,9097,6431.148148,173641,Y1.png,crisps_t.png,C10.png,C4.png,C3.png,C2.png,C9.png,C6.png,310557
21020,15:58:58,9730,997001336,choice,choice2,0,1,1,28,3024,6309.5,176666,Y1.png,yog_t.png,Y1.png,Y9.png,Y10.png,Y12.png,Y2.png,Y3.png,314207
21020,15:58:58,9730,997001336,switch,choice2,0,1,1,28,3024,6309.5,176666,Y1.png,yog_t.png,Y1.png,Y9.png,Y10.png,Y12.png,Y2.png,Y3.png,315998
21020,15:58:58,9730,997001336,choice,choice1,1,1,0,29,1746,6152.172414,178413,Y1.png,sand_t.png,SW11.png,SW10.png,SW6.png,SW7.png,SW1.png,SW8.png,318363
21020,15:58:58,9730,997001336,choice,choice2,0,1,1,30,2995,6046.966667,181409,Y1.png,soup_t.png,S12.png,S5.png,S9.png,S3.png,S6.png,S13.png,321978
21020,15:58:58,9730,997001336,switch,choice2,0,0,1,30,2995,6046.966667,181409,S12.png,soup_t.png,S12.png,S5.png,S9.png,S3.png,S6.png,S13.png,323762
21120,11:18:32,9852,540981755,choice,choice3,0,0,1,1,7876,7877,7877,RM11.png,sand_t.png,SW9.png,SW3.png,SW6.png,SW7.png,SW1.png,SW10.png,115419
21120,11:18:32,9852,540981755,switch,choice3,0,0,1,1,7876,7877,7877,SW9.png,sand_t.png,SW9.png,SW3.png,SW6.png,SW7.png,SW1.png,SW10.png,120849
21120,11:18:32,9852,540981755,choice,choice2,0,0,1,2,7633,7755.5,15511,SW9.png,yog_t.png,Y12.png,Y8.png,Y2.png,Y11.png,Y10.png,Y3.png,129097
21120,11:18:32,9852,540981755,switch,choice2,0,1,1,2,7633,7755.5,15511,Y12.png,yog_t.png,Y12.png,Y8.png,Y2.png,Y11.png,Y10.png,Y3.png,134133
21120,11:18:32,9852,540981755,choice,choice4,0,1,1,3,4419,6643.666667,19931,Y12.png,ready_t.png,RM4.png,RM12.png,RM5.png,RM9.png,RM13.png,RM8.png,139174
21120,11:18:32,9852,540981755,switch,choice4,0,0,1,3,4419,6643.666667,19931,RM4.png,ready_t.png,RM4.png,RM12.png,RM5.png,RM9.png,RM13.png,RM8.png,140730
21120,11:18:32,9852,540981755,choice,choice6,0,0,1,4,8635,7141.75,28567,RM4.png,sand_t.png,SW9.png,SW4.png,SW6.png,SW7.png,SW8.png,SW11.png,149992
21120,11:18:32,9852,540981755,switch,choice6,0,0,1,4,8635,7141.75,28567,SW9.png,sand_t.png,SW9.png,SW4.png,SW6.png,SW7.png,SW8.png,SW11.png,152064
21120,11:18:32,9852,540981755,choice,choice4,0,0,1,5,3099,6333.4,31667,SW9.png,ready_t.png,RM4.png,RM11.png,RM5.png,RM9.png,RM2.png,RM12.png,155783
21120,11:18:32,9852,540981755,switch,choice4,0,0,1,5,3099,6333.4,31667,RM4.png,ready_t.png,RM4.png,RM11.png,RM5.png,RM9.png,RM2.png,RM12.png,157092
21120,11:18:32,9852,540981755,choice,choice4,0,0,1,6,9783,6908.5,41451,RM4.png,ready_t.png,RM11.png,RM1.png,RM5.png,RM7.png,RM13.png,RM2.png,167502
21120,11:18:32,9852,540981755,switch,choice4,0,0,1,6,9783,6908.5,41451,RM11.png,ready_t.png,RM11.png,RM1.png,RM5.png,RM7.png,RM13.png,RM2.png,170628
21120,11:18:32,9852,540981755,choice,choice1,1,0,0,7,15348,8114.285714,56800,RM11.png,yog_t.png,Y13.png,Y6.png,Y12.png,Y10.png,Y2.png,Y3.png,186592
21120,11:18:32,9852,540981755,choice,choice1,1,0,0,8,18371,9396.5,75172,RM11.png,crisps_t.png,C5.png,C7.png,C3.png,C2.png,C11.png,C12.png,205590
21120,11:18:32,9852,540981755,choice,choice3,0,0,1,9,10241,9490.444444,85414,RM11.png,cereal_t.png,BC9.png,BC12.png,BC2.png,BC6.png,BC5.png,BC8.png,216452
21120,11:18:32,9852,540981755,switch,choice3,0,0,1,9,10241,9490.444444,85414,BC9.png,cereal_t.png,BC9.png,BC12.png,BC2.png,BC6.png,BC5.png,BC8.png,218533
21120,11:18:32,9852,540981755,choice,choice1,1,0,0,10,36759,12217.4,122174,BC9.png,crisps_t.png,C7.png,C4.png,C3.png,C12.png,C6.png,C9.png,255910
21120,11:18:32,9852,540981755,choice,choice3,0,0,1,11,5035,11564.54545,127210,BC9.png,sand_t.png,SW9.png,SW4.png,SW6.png,SW7.png,SW3.png,SW5.png,261571
21120,11:18:32,9852,540981755,switch,choice3,0,0,1,11,5035,11564.54545,127210,SW9.png,sand_t.png,SW9.png,SW4.png,SW6.png,SW7.png,SW3.png,SW5.png,263635
21120,11:18:32,9852,540981755,choice,choice1,1,0,0,12,6700,11159.25,133911,SW9.png,yog_t.png,Y1.png,Y9.png,Y10.png,Y12.png,Y2.png,Y3.png,270957
21120,11:18:32,9852,540981755,choice,choice2,0,0,1,13,6535,10803.61538,140447,SW9.png,soup_t.png,S12.png,S5.png,S9.png,S13.png,S3.png,S7.png,278112
21120,11:18:32,9852,540981755,switch,choice2,0,0,1,13,6535,10803.61538,140447,S12.png,soup_t.png,S12.png,S5.png,S9.png,S13.png,S3.png,S7.png,280513
21120,11:18:32,9852,540981755,choice,choice4,0,0,1,14,30280,12194.85714,170728,S12.png,soup_t.png,S12.png,S6.png,S9.png,S1.png,S4.png,S3.png,311413
21120,11:18:32,9852,540981755,switch,choice4,0,0,1,14,30280,12194.85714,170728,S12.png,soup_t.png,S12.png,S6.png,S9.png,S1.png,S4.png,S3.png,313982
21120,11:18:32,9852,540981755,choice,choice1,1,0,0,15,8140,11924.6,178869,S12.png,yog_t.png,Y1.png,Y8.png,Y3.png,Y12.png,Y10.png,Y2.png,322740
21120,11:18:32,9852,540981755,breaktime,choice1,1,0,0,15,8140,11924.6,178869,S12.png,yog_t.png,Y1.png,Y8.png,Y3.png,Y12.png,Y10.png,Y2.png,331598
21120,11:18:32,9852,540981755,choice,choice1,1,0,0,16,3837,11419.1875,182707,S12.png,sand_t.png,SW11.png,SW10.png,SW6.png,SW7.png,SW1.png,SW8.png,336063
21120,11:18:32,9852,540981755,choice,choice2,0,0,1,17,4707,11024.41176,187415,S12.png,cereal_t.png,BC1.png,BC3.png,BC2.png,BC5.png,BC8.png,BC9.png,341385
21120,11:18:32,9852,540981755,switch,choice2,0,0,1,17,4707,11024.41176,187415,BC1.png,cereal_t.png,BC1.png,BC3.png,BC2.png,BC5.png,BC8.png,BC9.png,344300
21120,11:18:32,9852,540981755,choice,choice1,1,0,0,18,6241,10758.72222,193657,BC1.png,yog_t.png,Y4.png,Y8.png,Y3.png,Y2.png,Y10.png,Y11.png,351158
21120,11:18:32,9852,540981755,choice,choice2,0,0,1,19,12462,10848.42105,206120,BC1.png,cereal_t.png,BC11.png,BC3.png,BC2.png,BC9.png,BC8.png,BC1.png,364248
21120,11:18:32,9852,540981755,switch,choice2,0,0,1,19,12462,10848.42105,206120,BC11.png,cereal_t.png,BC11.png,BC3.png,BC2.png,BC9.png,BC8.png,BC1.png,366482
21120,11:18:32,9852,540981755,choice,choice2,0,0,1,20,16558,11133.95,222679,BC11.png,soup_t.png,S12.png,S5.png,S9.png,S3.png,S6.png,S13.png,383662
21120,11:18:32,9852,540981755,switch,choice2,0,0,1,20,16558,11133.95,222679,S12.png,soup_t.png,S12.png,S5.png,S9.png,S3.png,S6.png,S13.png,385597
21120,11:18:32,9852,540981755,choice,choice3,0,0,1,21,8152,10992,230832,S12.png,cereal_t.png,BC1.png,BC12.png,BC2.png,BC4.png,BC8.png,BC5.png,394367
21120,11:18:32,9852,540981755,switch,choice3,0,0,1,21,8152,10992,230832,BC1.png,cereal_t.png,BC1.png,BC12.png,BC2.png,BC4.png,BC8.png,BC5.png,396551
21120,11:18:32,9852,540981755,choice,choice4,0,0,1,22,6097,10769.54545,236930,BC1.png,ready_t.png,RM11.png,RM1.png,RM5.png,RM8.png,RM13.png,RM2.png,403266
21120,11:18:32,9852,540981755,switch,choice4,0,1,1,22,6097,10769.54545,236930,RM11.png,ready_t.png,RM11.png,RM1.png,RM5.png,RM8.png,RM13.png,RM2.png,407032
21120,11:18:32,9852,540981755,choice,choice1,1,1,0,23,6486,10583.34783,243417,RM11.png,crisps_t.png,C10.png,C4.png,C3.png,C2.png,C9.png,C6.png,414132
21120,11:18:32,9852,540981755,choice,choice2,0,1,1,24,8162,10482.5,251580,RM11.png,crisps_t.png,C10.png,C8.png,C5.png,C9.png,C2.png,C6.png,422915
21120,11:18:32,9852,540981755,switch,choice2,0,1,1,24,8162,10482.5,251580,C10.png,crisps_t.png,C10.png,C8.png,C5.png,C9.png,C2.png,C6.png,426231
21120,11:18:32,9852,540981755,choice,choice1,1,1,0,25,6502,10323.32,258083,C10.png,crisps_t.png,C10.png,C4.png,C3.png,C6.png,C2.png,C7.png,433359
21120,11:18:32,9852,540981755,choice,choice2,0,1,1,26,6708,10184.30769,264792,C10.png,cereal_t.png,BC11.png,BC3.png,BC2.png,BC12.png,BC8.png,BC1.png,440683
21120,11:18:32,9852,540981755,switch,choice2,0,1,1,26,6708,10184.30769,264792,BC11.png,cereal_t.png,BC11.png,BC3.png,BC2.png,BC12.png,BC8.png,BC1.png,445021
21120,11:18:32,9852,540981755,choice,choice3,0,1,1,27,6086,10032.55556,270879,BC11.png,sand_t.png,SW9.png,SW8.png,SW6.png,SW7.png,SW1.png,SW11.png,451737
21120,11:18:32,9852,540981755,switch,choice3,0,0,1,27,6086,10032.55556,270879,SW9.png,sand_t.png,SW9.png,SW8.png,SW6.png,SW7.png,SW1.png,SW11.png,454772
21120,11:18:32,9852,540981755,choice,choice1,1,0,0,28,13143,10143.67857,284023,SW9.png,crisps_t.png,C10.png,C8.png,C5.png,C9.png,C2.png,C6.png,468540
21120,11:18:32,9852,540981755,choice,choice1,1,0,0,29,4020,9932.551724,288044,SW9.png,ready_t.png,RM11.png,RM1.png,RM5.png,RM7.png,RM13.png,RM2.png,473188
21120,11:18:32,9852,540981755,choice,choice3,0,0,1,30,2898,9698.1,290943,SW9.png,sand_t.png,SW9.png,SW4.png,SW6.png,SW7.png,SW8.png,SW11.png,476713
21120,11:18:32,9852,540981755,switch,choice3,0,0,1,30,2898,9698.1,290943,SW9.png,sand_t.png,SW9.png,SW4.png,SW6.png,SW7.png,SW8.png,SW11.png,479107
21320,11:05:36,9969,908896600,choice,choice3,0,0,1,1,10845,10846,10846,RM11.png,sand_t.png,SW9.png,SW4.png,SW6.png,SW7.png,SW3.png,SW5.png,84166
21320,11:05:36,9969,908896600,switch,choice3,0,1,1,1,10845,10846,10846,SW9.png,sand_t.png,SW9.png,SW4.png,SW6.png,SW7.png,SW3.png,SW5.png,88207
21320,11:05:36,9969,908896600,choice,choice2,0,1,1,2,13771,12309,24618,SW9.png,crisps_t.png,C10.png,C4.png,C3.png,C6.png,C2.png,C7.png,102542
21320,11:05:36,9969,908896600,switch,choice2,0,1,1,2,13771,12309,24618,C10.png,crisps_t.png,C10.png,C4.png,C3.png,C6.png,C2.png,C7.png,105639
21320,11:05:36,9969,908896600,choice,choice2,0,1,1,3,11546,12055,36165,C10.png,yog_t.png,Y1.png,Y9.png,Y10.png,Y12.png,Y2.png,Y3.png,117750
21320,11:05:36,9969,908896600,switch,choice2,0,0,1,3,11546,12055,36165,Y1.png,yog_t.png,Y1.png,Y9.png,Y10.png,Y12.png,Y2.png,Y3.png,119543
21320,11:05:36,9969,908896600,choice,choice4,0,0,1,4,5478,10411,41644,Y1.png,ready_t.png,RM11.png,RM1.png,RM5.png,RM8.png,RM13.png,RM2.png,125598
21320,11:05:36,9969,908896600,switch,choice4,0,1,1,4,5478,10411,41644,RM11.png,ready_t.png,RM11.png,RM1.png,RM5.png,RM8.png,RM13.png,RM2.png,129118
21320,11:05:36,9969,908896600,choice,choice3,0,1,1,5,7394,9807.8,49039,RM11.png,sand_t.png,SW11.png,SW10.png,SW6.png,SW7.png,SW1.png,SW8.png,137081
21320,11:05:36,9969,908896600,switch,choice3,0,0,1,5,7394,9807.8,49039,SW11.png,sand_t.png,SW11.png,SW10.png,SW6.png,SW7.png,SW1.png,SW8.png,139878
21320,11:05:36,9969,908896600,choice,choice3,0,0,1,6,6872,9318.666667,55912,SW11.png,soup_t.png,S12.png,S13.png,S9.png,S7.png,S3.png,S4.png,147326
21320,11:05:36,9969,908896600,switch,choice3,0,0,1,6,6872,9318.666667,55912,S12.png,soup_t.png,S12.png,S13.png,S9.png,S7.png,S3.png,S4.png,148518
21320,11:05:36,9969,908896600,choice,choice1,1,0,0,7,12343,9750.857143,68256,S12.png,crisps_t.png,C5.png,C7.png,C3.png,C2.png,C11.png,C12.png,161430
21320,11:05:36,9969,908896600,choice,choice1,1,0,0,8,9426,9710.375,77683,S12.png,yog_t.png,Y4.png,Y8.png,Y3.png,Y2.png,Y10.png,Y11.png,171430
21320,11:05:36,9969,908896600,choice,choice2,0,0,1,9,7682,9485.111111,85366,S12.png,soup_t.png,S12.png,S5.png,S9.png,S3.png,S6.png,S13.png,179686
21320,11:05:36,9969,908896600,switch,choice2,0,1,1,9,7682,9485.111111,85366,S12.png,soup_t.png,S12.png,S5.png,S9.png,S3.png,S6.png,S13.png,181982
21320,11:05:36,9969,908896600,choice,choice3,0,1,1,10,22748,10811.5,108115,S12.png,sand_t.png,SW9.png,SW4.png,SW6.png,SW7.png,SW8.png,SW11.png,205302
21320,11:05:36,9969,908896600,switch,choice3,0,1,1,10,22748,10811.5,108115,SW9.png,sand_t.png,SW9.png,SW4.png,SW6.png,SW7.png,SW8.png,SW11.png,207078
21320,11:05:36,9969,908896600,choice,choice3,0,1,1,11,3424,10140,111540,SW9.png,cereal_t.png,BC9.png,BC12.png,BC2.png,BC6.png,BC5.png,BC8.png,211078
21320,11:05:36,9969,908896600,switch,choice3,0,0,1,11,3424,10140,111540,BC9.png,cereal_t.png,BC9.png,BC12.png,BC2.png,BC6.png,BC5.png,BC8.png,213622
21320,11:05:36,9969,908896600,choice,choice2,0,0,1,12,5555,9758,117096,BC9.png,yog_t.png,Y13.png,Y6.png,Y12.png,Y10.png,Y2.png,Y3.png,219742
21320,11:05:36,9969,908896600,switch,choice2,0,1,1,12,5555,9758,117096,Y13.png,yog_t.png,Y13.png,Y6.png,Y12.png,Y10.png,Y2.png,Y3.png,222134
21320,11:05:36,9969,908896600,choice,choice2,0,1,1,13,8822,9686.076923,125919,Y13.png,crisps_t.png,C7.png,C4.png,C3.png,C12.png,C6.png,C9.png,231526
21320,11:05:36,9969,908896600,switch,choice2,0,1,1,13,8822,9686.076923,125919,C7.png,crisps_t.png,C7.png,C4.png,C3.png,C12.png,C6.png,C9.png,233390
21320,11:05:36,9969,908896600,choice,choice2,0,1,1,14,8372,9592.285714,134292,C7.png,yog_t.png,Y1.png,Y8.png,Y3.png,Y12.png,Y10.png,Y2.png,242326
21320,11:05:36,9969,908896600,switch,choice2,0,1,1,14,8372,9592.285714,134292,Y1.png,yog_t.png,Y1.png,Y8.png,Y3.png,Y12.png,Y10.png,Y2.png,244662
21320,11:05:36,9969,908896600,choice,choice1,1,1,0,15,8049,9489.466667,142342,Y1.png,ready_t.png,RM11.png,RM1.png,RM5.png,RM3.png,RM13.png,RM2.png,253270
21320,11:05:36,9969,908896600,breaktime,choice1,1,1,0,15,8049,9489.466667,142342,Y1.png,ready_t.png,RM11.png,RM1.png,RM5.png,RM3.png,RM13.png,RM2.png,285143
21320,11:05:36,9969,908896600,choice,choice1,1,1,0,16,5494,9239.8125,147837,Y1.png,soup_t.png,S5.png,S9.png,S6.png,S10.png,S13.png,S3.png,291198
21320,11:05:36,9969,908896600,choice,choice4,0,1,1,17,4180,8942.235294,152018,Y1.png,ready_t.png,RM4.png,RM11.png,RM5.png,RM9.png,RM2.png,RM12.png,295950
21320,11:05:36,9969,908896600,switch,choice4,0,0,1,17,4180,8942.235294,152018,RM4.png,ready_t.png,RM4.png,RM11.png,RM5.png,RM9.png,RM2.png,RM12.png,298942
21320,11:05:36,9969,908896600,choice,choice2,0,0,1,18,4062,8671.166667,156081,RM4.png,yog_t.png,Y12.png,Y8.png,Y2.png,Y11.png,Y10.png,Y3.png,303566
21320,11:05:36,9969,908896600,switch,choice2,0,1,1,18,4062,8671.166667,156081,Y12.png,yog_t.png,Y12.png,Y8.png,Y2.png,Y11.png,Y10.png,Y3.png,306318
21320,11:05:36,9969,908896600,choice,choice2,0,1,1,19,7055,8586.157895,163137,Y12.png,soup_t.png,S12.png,S5.png,S9.png,S13.png,S3.png,S7.png,313942
21320,11:05:36,9969,908896600,switch,choice2,0,1,1,19,7055,8586.157895,163137,S12.png,soup_t.png,S12.png,S5.png,S9.png,S13.png,S3.png,S7.png,315333
21320,11:05:36,9969,908896600,choice,choice2,0,1,1,20,5574,8435.6,168712,S12.png,cereal_t.png,BC11.png,BC3.png,BC2.png,BC12.png,BC8.png,BC1.png,321478
21320,11:05:36,9969,908896600,switch,choice2,0,1,1,20,5574,8435.6,168712,BC11.png,cereal_t.png,BC11.png,BC3.png,BC2.png,BC12.png,BC8.png,BC1.png,323790
21320,11:05:36,9969,908896600,choice,choice3,0,1,1,21,8916,8458.52381,177629,BC11.png,crisps_t.png,C10.png,C8.png,C5.png,C9.png,C2.png,C6.png,333269
21320,11:05:36,9969,908896600,switch,choice3,0,1,1,21,8916,8458.52381,177629,C10.png,crisps_t.png,C10.png,C8.png,C5.png,C9.png,C2.png,C6.png,334862
21320,11:05:36,9969,908896600,choice,choice1,1,1,0,22,6248,8358.090909,183878,C10.png,ready_t.png,RM11.png,RM1.png,RM5.png,RM7.png,RM13.png,RM2.png,341685
21320,11:05:36,9969,908896600,choice,choice3,0,1,1,23,8664,8371.434783,192543,C10.png,sand_t.png,SW9.png,SW3.png,SW6.png,SW7.png,SW1.png,SW10.png,350918
21320,11:05:36,9969,908896600,switch,choice3,0,1,1,23,8664,8371.434783,192543,SW9.png,sand_t.png,SW9.png,SW3.png,SW6.png,SW7.png,SW1.png,SW10.png,352774
21320,11:05:36,9969,908896600,choice,choice4,0,1,1,24,4796,8222.5,197340,SW9.png,ready_t.png,RM4.png,RM12.png,RM5.png,RM9.png,RM13.png,RM8.png,358134
21320,11:05:36,9969,908896600,switch,choice4,0,0,1,24,4796,8222.5,197340,RM4.png,ready_t.png,RM4.png,RM12.png,RM5.png,RM9.png,RM13.png,RM8.png,360246
21320,11:05:36,9969,908896600,choice,choice2,0,0,1,25,4265,8064.24,201606,RM4.png,crisps_t.png,C10.png,C4.png,C3.png,C2.png,C9.png,C6.png,365085
21320,11:05:36,9969,908896600,switch,choice2,0,1,1,25,4265,8064.24,201606,C10.png,crisps_t.png,C10.png,C4.png,C3.png,C2.png,C9.png,C6.png,366646
21320,11:05:36,9969,908896600,choice,choice2,0,1,1,26,4706,7935.115385,206313,C10.png,cereal_t.png,BC1.png,BC3.png,BC2.png,BC5.png,BC8.png,BC9.png,371910
21320,11:05:36,9969,908896600,switch,choice2,0,1,1,26,4706,7935.115385,206313,BC1.png,cereal_t.png,BC1.png,BC3.png,BC2.png,BC5.png,BC8.png,BC9.png,374158
21320,11:05:36,9969,908896600,choice,choice1,1,1,0,27,9573,7995.814815,215887,BC1.png,sand_t.png,SW9.png,SW8.png,SW6.png,SW7.png,SW1.png,SW11.png,384293
21320,11:05:36,9969,908896600,choice,choice2,0,1,1,28,9800,8060.285714,225688,BC1.png,soup_t.png,S12.png,S5.png,S9.png,S13.png,S3.png,S7.png,394654
21320,11:05:36,9969,908896600,switch,choice2,0,1,1,28,9800,8060.285714,225688,S12.png,soup_t.png,S12.png,S5.png,S9.png,S13.png,S3.png,S7.png,396413
21320,11:05:36,9969,908896600,choice,choice1,1,1,0,29,7554,8042.862069,233243,S12.png,sand_t.png,SW9.png,SW3.png,SW6.png,SW7.png,SW1.png,SW10.png,404541
21320,11:05:36,9969,908896600,choice,choice1,1,1,0,30,6750,7999.8,239994,S12.png,yog_t.png,Y13.png,Y6.png,Y12.png,Y10.png,Y2.png,Y3.png,411854
21420,09:00:39,9827,576923801,choice,choice4,0,0,1,1,17064,17065,17065,RM11.png,ready_t.png,RM4.png,RM11.png,RM5.png,RM9.png,RM2.png,RM12.png,89463
21420,09:00:39,9827,576923801,switch,choice4,0,1,1,1,17064,17065,17065,RM4.png,ready_t.png,RM4.png,RM11.png,RM5.png,RM9.png,RM2.png,RM12.png,93640
21420,09:00:39,9827,576923801,choice,choice4,0,1,1,2,19695,18380.5,36761,RM4.png,ready_t.png,RM11.png,RM1.png,RM5.png,RM3.png,RM13.png,RM2.png,113969
21420,09:00:39,9827,576923801,switch,choice4,0,1,1,2,19695,18380.5,36761,RM11.png,ready_t.png,RM11.png,RM1.png,RM5.png,RM3.png,RM13.png,RM2.png,116126
21420,09:00:39,9827,576923801,choice,choice4,0,1,1,3,14376,17046,51138,RM11.png,ready_t.png,RM11.png,RM1.png,RM5.png,RM8.png,RM13.png,RM2.png,131151
21420,09:00:39,9827,576923801,switch,choice4,0,1,1,3,14376,17046,51138,RM11.png,ready_t.png,RM11.png,RM1.png,RM5.png,RM8.png,RM13.png,RM2.png,132918
21420,09:00:39,9827,576923801,choice,choice5,0,1,1,4,9088,15056.75,60227,RM11.png,crisps_t.png,C10.png,C4.png,C3.png,C2.png,C9.png,C6.png,142633
21420,09:00:39,9827,576923801,switch,choice5,0,0,1,4,9088,15056.75,60227,C10.png,crisps_t.png,C10.png,C4.png,C3.png,C2.png,C9.png,C6.png,148033
21420,09:00:39,9827,576923801,choice,choice1,1,0,0,5,21947,16435,82175,C10.png,yog_t.png,Y1.png,Y8.png,Y3.png,Y12.png,Y10.png,Y2.png,170600
21420,09:00:39,9827,576923801,choice,choice6,0,0,1,6,16600,16462.66667,98776,C10.png,sand_t.png,SW9.png,SW8.png,SW6.png,SW7.png,SW1.png,SW11.png,187847
21420,09:00:39,9827,576923801,switch,choice6,0,1,1,6,16600,16462.66667,98776,SW9.png,sand_t.png,SW9.png,SW8.png,SW6.png,SW7.png,SW1.png,SW11.png,190146
21420,09:00:39,9827,576923801,choice,choice2,0,1,1,7,23377,17450.57143,122154,SW9.png,crisps_t.png,C7.png,C4.png,C3.png,C12.png,C6.png,C9.png,214143
21420,09:00:39,9827,576923801,switch,choice2,0,1,1,7,23377,17450.57143,122154,C7.png,crisps_t.png,C7.png,C4.png,C3.png,C12.png,C6.png,C9.png,215922
21420,09:00:39,9827,576923801,choice,choice1,1,1,0,8,12822,16872.125,134977,C7.png,yog_t.png,Y4.png,Y8.png,Y3.png,Y2.png,Y10.png,Y11.png,229374
21420,09:00:39,9827,576923801,choice,choice4,0,1,1,9,4670,15516.44444,139648,C7.png,ready_t.png,RM4.png,RM12.png,RM5.png,RM9.png,RM13.png,RM8.png,234674
21420,09:00:39,9827,576923801,switch,choice4,0,0,1,9,4670,15516.44444,139648,RM4.png,ready_t.png,RM4.png,RM12.png,RM5.png,RM9.png,RM13.png,RM8.png,237487
21420,09:00:39,9827,576923801,choice,choice3,0,0,1,10,6235,14588.4,145884,RM4.png,cereal_t.png,BC9.png,BC12.png,BC2.png,BC6.png,BC5.png,BC8.png,244343
21420,09:00:39,9827,576923801,switch,choice3,0,0,1,10,6235,14588.4,145884,BC9.png,cereal_t.png,BC9.png,BC12.png,BC2.png,BC6.png,BC5.png,BC8.png,246331
21420,09:00:39,9827,576923801,choice,choice3,0,0,1,11,14188,14552.09091,160073,BC9.png,cereal_t.png,BC1.png,BC12.png,BC2.png,BC4.png,BC8.png,BC5.png,261137
21420,09:00:39,9827,576923801,switch,choice3,0,0,1,11,14188,14552.09091,160073,BC1.png,cereal_t.png,BC1.png,BC12.png,BC2.png,BC4.png,BC8.png,BC5.png,262828
21420,09:00:39,9827,576923801,choice,choice3,0,0,1,12,16327,14700.08333,176401,BC1.png,crisps_t.png,C10.png,C8.png,C5.png,C9.png,C2.png,C6.png,279788
21420,09:00:39,9827,576923801,switch,choice3,0,1,1,12,16327,14700.08333,176401,C10.png,crisps_t.png,C10.png,C8.png,C5.png,C9.png,C2.png,C6.png,287012
21420,09:00:39,9827,576923801,choice,choice1,1,1,0,13,17670,14928.61538,194072,C10.png,yog_t.png,Y1.png,Y9.png,Y10.png,Y12.png,Y2.png,Y3.png,305311
21420,09:00:39,9827,576923801,choice,choice2,0,1,1,14,10023,14578.28571,204096,C10.png,yog_t.png,Y13.png,Y6.png,Y12.png,Y10.png,Y2.png,Y3.png,315979
21420,09:00:39,9827,576923801,switch,choice2,0,0,1,14,10023,14578.28571,204096,Y13.png,yog_t.png,Y13.png,Y6.png,Y12.png,Y10.png,Y2.png,Y3.png,318849
21420,09:00:39,9827,576923801,choice,choice1,1,0,0,15,10221,14287.86667,214318,Y13.png,sand_t.png,SW9.png,SW3.png,SW6.png,SW7.png,SW1.png,SW10.png,329697
21420,09:00:39,9827,576923801,breaktime,choice1,1,0,0,15,10221,14287.86667,214318,Y13.png,sand_t.png,SW9.png,SW3.png,SW6.png,SW7.png,SW1.png,SW10.png,331792
21420,09:00:39,9827,576923801,choice,choice4,0,0,1,16,9750,14004.3125,224069,Y13.png,cereal_t.png,BC11.png,BC3.png,BC2.png,BC12.png,BC8.png,BC1.png,342161
21420,09:00:39,9827,576923801,switch,choice4,0,0,1,16,9750,14004.3125,224069,BC11.png,cereal_t.png,BC11.png,BC3.png,BC2.png,BC12.png,BC8.png,BC1.png,343851
21420,09:00:39,9827,576923801,choice,choice2,0,0,1,17,3598,13392.23529,227668,BC11.png,soup_t.png,S12.png,S5.png,S9.png,S13.png,S3.png,S7.png,348091
21420,09:00:39,9827,576923801,switch,choice2,0,0,1,17,3598,13392.23529,227668,S12.png,soup_t.png,S12.png,S5.png,S9.png,S13.png,S3.png,S7.png,349300
21420,09:00:39,9827,576923801,choice,choice1,1,0,0,18,5908,12976.5,233577,S12.png,crisps_t.png,C10.png,C4.png,C3.png,C6.png,C2.png,C7.png,355832
21420,09:00:39,9827,576923801,choice,choice1,1,0,0,19,2694,12435.36842,236272,S12.png,soup_t.png,S12.png,S5.png,S9.png,S3.png,S6.png,S13.png,359152
21420,09:00:39,9827,576923801,choice,choice3,0,0,1,20,4332,12030.25,240605,S12.png,sand_t.png,SW9.png,SW4.png,SW6.png,SW7.png,SW8.png,SW11.png,364135
21420,09:00:39,9827,576923801,switch,choice3,0,0,1,20,4332,12030.25,240605,SW9.png,sand_t.png,SW9.png,SW4.png,SW6.png,SW7.png,SW8.png,SW11.png,365943
21420,09:00:39,9827,576923801,choice,choice2,0,0,1,21,8934,11882.85714,249540,SW9.png,cereal_t.png,BC11.png,BC3.png,BC2.png,BC9.png,BC8.png,BC1.png,375502
21420,09:00:39,9827,576923801,switch,choice2,0,1,1,21,8934,11882.85714,249540,BC11.png,cereal_t.png,BC11.png,BC3.png,BC2.png,BC9.png,BC8.png,BC1.png,382889
21420,09:00:39,9827,576923801,choice,choice1,1,1,0,22,3788,11514.95455,253329,BC11.png,crisps_t.png,C5.png,C7.png,C3.png,C2.png,C11.png,C12.png,387302
21420,09:00:39,9827,576923801,choice,choice3,0,1,1,23,2134,11107.13043,255464,BC11.png,sand_t.png,SW9.png,SW4.png,SW6.png,SW7.png,SW3.png,SW5.png,390059
21420,09:00:39,9827,576923801,switch,choice3,0,0,1,23,2134,11107.13043,255464,SW9.png,sand_t.png,SW9.png,SW4.png,SW6.png,SW7.png,SW3.png,SW5.png,391446
21420,09:00:39,9827,576923801,choice,choice1,1,0,0,24,1453,10704.91667,256918,SW9.png,soup_t.png,S12.png,S6.png,S9.png,S1.png,S4.png,S3.png,393523
21420,09:00:39,9827,576923801,choice,choice1,1,0,0,25,3150,10402.76,260069,SW9.png,soup_t.png,S12.png,S13.png,S9.png,S7.png,S3.png,S4.png,397292
21420,09:00:39,9827,576923801,choice,choice3,0,0,1,26,3447,10135.26923,263517,SW9.png,sand_t.png,SW11.png,SW10.png,SW6.png,SW7.png,SW1.png,SW8.png,401366
21420,09:00:39,9827,576923801,switch,choice3,0,0,1,26,3447,10135.26923,263517,SW11.png,sand_t.png,SW11.png,SW10.png,SW6.png,SW7.png,SW1.png,SW8.png,402768
21420,09:00:39,9827,576923801,choice,choice3,0,0,1,27,5192,9952.222222,268710,SW11.png,cereal_t.png,BC1.png,BC3.png,BC2.png,BC5.png,BC8.png,BC9.png,408575
21420,09:00:39,9827,576923801,switch,choice3,0,0,1,27,5192,9952.222222,268710,BC1.png,cereal_t.png,BC1.png,BC3.png,BC2.png,BC5.png,BC8.png,BC9.png,410042
21420,09:00:39,9827,576923801,choice,choice1,1,0,0,28,3318,9715.321429,272029,BC1.png,soup_t.png,S12.png,S5.png,S9.png,S3.png,S6.png,S13.png,413987
21420,09:00:39,9827,576923801,choice,choice3,0,0,1,29,3694,9507.724138,275724,BC1.png,crisps_t.png,C10.png,C8.png,C5.png,C9.png,C2.png,C6.png,418307
21420,09:00:39,9827,576923801,switch,choice3,0,0,1,29,3694,9507.724138,275724,C10.png,crisps_t.png,C10.png,C8.png,C5.png,C9.png,C2.png,C6.png,419590
21420,09:00:39,9827,576923801,choice,choice2,0,0,1,30,2915,9288,278640,C10.png,cereal_t.png,BC11.png,BC3.png,BC2.png,BC9.png,BC8.png,BC1.png,423143
21420,09:00:39,9827,576923801,switch,choice2,0,0,1,30,2915,9288,278640,BC11.png,cereal_t.png,BC11.png,BC3.png,BC2.png,BC9.png,BC8.png,BC1.png,424514
21520,21:33:37,9722,231234832,choice,choice3,0,0,1,1,14160,14161,14161,RM11.png,cereal_t.png,BC1.png,BC12.png,BC2.png,BC4.png,BC8.png,BC5.png,91472
21520,21:33:37,9722,231234832,switch,choice3,0,0,1,1,14160,14161,14161,BC1.png,cereal_t.png,BC1.png,BC12.png,BC2.png,BC4.png,BC8.png,BC5.png,102628
21520,21:33:37,9722,231234832,choice,choice2,0,0,1,2,7021,10591.5,21183,BC1.png,cereal_t.png,BC11.png,BC3.png,BC2.png,BC9.png,BC8.png,BC1.png,110247
21520,21:33:37,9722,231234832,switch,choice2,0,0,1,2,7021,10591.5,21183,BC11.png,cereal_t.png,BC11.png,BC3.png,BC2.png,BC9.png,BC8.png,BC1.png,116260
21520,21:33:37,9722,231234832,choice,choice2,0,0,1,3,20504,13896,41688,BC11.png,yog_t.png,Y12.png,Y8.png,Y2.png,Y11.png,Y10.png,Y3.png,137393
21520,21:33:37,9722,231234832,switch,choice2,0,0,1,3,20504,13896,41688,Y12.png,yog_t.png,Y12.png,Y8.png,Y2.png,Y11.png,Y10.png,Y3.png,139623
21520,21:33:37,9722,231234832,choice,choice1,1,0,0,4,20556,15561.25,62245,Y12.png,ready_t.png,RM11.png,RM1.png,RM5.png,RM3.png,RM13.png,RM2.png,160776
21520,21:33:37,9722,231234832,choice,choice1,1,0,0,5,16769,15803,79015,Y12.png,sand_t.png,SW9.png,SW8.png,SW6.png,SW7.png,SW1.png,SW11.png,178136
21520,21:33:37,9722,231234832,choice,choice4,0,0,1,6,7547,14427.16667,86563,Y12.png,ready_t.png,RM4.png,RM12.png,RM5.png,RM9.png,RM13.png,RM8.png,186279
21520,21:33:37,9722,231234832,switch,choice4,0,0,1,6,7547,14427.16667,86563,RM4.png,ready_t.png,RM4.png,RM12.png,RM5.png,RM9.png,RM13.png,RM8.png,188448
21520,21:33:37,9722,231234832,choice,choice3,0,0,1,7,6619,13311.85714,93183,RM4.png,soup_t.png,S12.png,S13.png,S9.png,S7.png,S3.png,S4.png,195664
21520,21:33:37,9722,231234832,switch,choice3,0,0,1,7,6619,13311.85714,93183,S12.png,soup_t.png,S12.png,S13.png,S9.png,S7.png,S3.png,S4.png,197361
21520,21:33:37,9722,231234832,choice,choice6,0,0,1,8,19794,14122.25,112978,S12.png,sand_t.png,SW11.png,SW10.png,SW6.png,SW7.png,SW1.png,SW8.png,217740
21520,21:33:37,9722,231234832,switch,choice6,0,0,1,8,19794,14122.25,112978,SW11.png,sand_t.png,SW11.png,SW10.png,SW6.png,SW7.png,SW1.png,SW8.png,218972
21520,21:33:37,9722,231234832,choice,choice3,0,0,1,9,6562,13282.33333,119541,SW11.png,crisps_t.png,C10.png,C8.png,C5.png,C9.png,C2.png,C6.png,226120
21520,21:33:37,9722,231234832,switch,choice3,0,0,1,9,6562,13282.33333,119541,C10.png,crisps_t.png,C10.png,C8.png,C5.png,C9.png,C2.png,C6.png,227440
21520,21:33:37,9722,231234832,choice,choice2,0,0,1,10,28123,14766.5,147665,C10.png,crisps_t.png,C7.png,C4.png,C3.png,C12.png,C6.png,C9.png,256146
21520,21:33:37,9722,231234832,switch,choice2,0,0,1,10,28123,14766.5,147665,C7.png,crisps_t.png,C7.png,C4.png,C3.png,C12.png,C6.png,C9.png,258295
21520,21:33:37,9722,231234832,choice,choice2,0,0,1,11,21843,15409.90909,169509,C7.png,sand_t.png,SW9.png,SW4.png,SW6.png,SW7.png,SW8.png,SW11.png,280728
21520,21:33:37,9722,231234832,switch,choice2,0,0,1,11,21843,15409.90909,169509,SW9.png,sand_t.png,SW9.png,SW4.png,SW6.png,SW7.png,SW8.png,SW11.png,284660
21520,21:33:37,9722,231234832,choice,choice2,0,0,1,12,5651,14596.75,175161,SW9.png,soup_t.png,S12.png,S5.png,S9.png,S13.png,S3.png,S7.png,290898
21520,21:33:37,9722,231234832,switch,choice2,0,0,1,12,5651,14596.75,175161,S12.png,soup_t.png,S12.png,S5.png,S9.png,S13.png,S3.png,S7.png,292466
21520,21:33:37,9722,231234832,choice,choice2,0,0,1,13,6859,14001.61538,182021,S12.png,cereal_t.png,BC1.png,BC3.png,BC2.png,BC5.png,BC8.png,BC9.png,299905
21520,21:33:37,9722,231234832,switch,choice2,0,0,1,13,6859,14001.61538,182021,BC1.png,cereal_t.png,BC1.png,BC3.png,BC2.png,BC5.png,BC8.png,BC9.png,301443
21520,21:33:37,9722,231234832,choice,choice3,0,0,1,14,5515,13395.5,187537,BC1.png,cereal_t.png,BC9.png,BC12.png,BC2.png,BC6.png,BC5.png,BC8.png,307543
21520,21:33:37,9722,231234832,switch,choice3,0,0,1,14,5515,13395.5,187537,BC9.png,cereal_t.png,BC9.png,BC12.png,BC2.png,BC6.png,BC5.png,BC8.png,309337
21520,21:33:37,9722,231234832,choice,choice1,1,0,0,15,8716,13083.6,196254,BC9.png,ready_t.png,RM11.png,RM1.png,RM5.png,RM8.png,RM13.png,RM2.png,318643
21520,21:33:37,9722,231234832,breaktime,choice1,1,0,0,15,8716,13083.6,196254,BC9.png,ready_t.png,RM11.png,RM1.png,RM5.png,RM8.png,RM13.png,RM2.png,321003
21520,21:33:37,9722,231234832,choice,choice2,0,0,1,16,8625,12805,204880,BC9.png,yog_t.png,Y13.png,Y6.png,Y12.png,Y10.png,Y2.png,Y3.png,330233
21520,21:33:37,9722,231234832,switch,choice2,0,0,1,16,8625,12805,204880,Y13.png,yog_t.png,Y13.png,Y6.png,Y12.png,Y10.png,Y2.png,Y3.png,333091
21520,21:33:37,9722,231234832,choice,choice2,0,0,1,17,6534,12436.17647,211415,Y13.png,cereal_t.png,BC11.png,BC3.png,BC2.png,BC12.png,BC8.png,BC1.png,340207
21520,21:33:37,9722,231234832,switch,choice2,0,0,1,17,6534,12436.17647,211415,BC11.png,cereal_t.png,BC11.png,BC3.png,BC2.png,BC12.png,BC8.png,BC1.png,341981
21520,21:33:37,9722,231234832,choice,choice2,0,0,1,18,7369,12154.72222,218785,BC11.png,yog_t.png,Y1.png,Y8.png,Y3.png,Y12.png,Y10.png,Y2.png,349974
21520,21:33:37,9722,231234832,switch,choice2,0,0,1,18,7369,12154.72222,218785,Y1.png,yog_t.png,Y1.png,Y8.png,Y3.png,Y12.png,Y10.png,Y2.png,353759
21520,21:33:37,9722,231234832,choice,choice1,1,0,0,19,7752,11923.05263,226538,Y1.png,crisps_t.png,C10.png,C4.png,C3.png,C2.png,C9.png,C6.png,362090
21520,21:33:37,9722,231234832,choice,choice2,0,0,1,20,43760,13514.95,270299,Y1.png,crisps_t.png,C10.png,C4.png,C3.png,C6.png,C2.png,C7.png,406429
21520,21:33:37,9722,231234832,switch,choice2,0,0,1,20,43760,13514.95,270299,C10.png,crisps_t.png,C10.png,C4.png,C3.png,C6.png,C2.png,C7.png,408587
21520,21:33:37,9722,231234832,choice,choice4,0,0,1,21,7069,13208.04762,277369,C10.png,ready_t.png,RM4.png,RM11.png,RM5.png,RM9.png,RM2.png,RM12.png,416247
21520,21:33:37,9722,231234832,switch,choice4,0,0,1,21,7069,13208.04762,277369,RM4.png,ready_t.png,RM4.png,RM11.png,RM5.png,RM9.png,RM2.png,RM12.png,418051
21520,21:33:37,9722,231234832,choice,choice3,0,0,1,22,18820,13463.18182,296190,RM4.png,sand_t.png,SW9.png,SW3.png,SW6.png,SW7.png,SW1.png,SW10.png,437463
21520,21:33:37,9722,231234832,switch,choice3,0,0,1,22,18820,13463.18182,296190,SW9.png,sand_t.png,SW9.png,SW3.png,SW6.png,SW7.png,SW1.png,SW10.png,439474
21520,21:33:37,9722,231234832,choice,choice1,1,0,0,23,7698,13212.56522,303889,SW9.png,soup_t.png,S12.png,S6.png,S9.png,S1.png,S4.png,S3.png,447754
21520,21:33:37,9722,231234832,choice,choice2,0,0,1,24,13354,13218.5,317244,SW9.png,soup_t.png,S12.png,S5.png,S9.png,S3.png,S6.png,S13.png,461692
21520,21:33:37,9722,231234832,switch,choice2,0,0,1,24,13354,13218.5,317244,S12.png,soup_t.png,S12.png,S5.png,S9.png,S3.png,S6.png,S13.png,463436
21520,21:33:37,9722,231234832,choice,choice2,0,0,1,25,5490,12909.4,322735,S12.png,soup_t.png,S5.png,S9.png,S6.png,S10.png,S13.png,S3.png,469509
21520,21:33:37,9722,231234832,switch,choice2,0,0,1,25,5490,12909.4,322735,S5.png,soup_t.png,S5.png,S9.png,S6.png,S10.png,S13.png,S3.png,471421
21520,21:33:37,9722,231234832,choice,choice2,0,0,1,26,10097,12801.26923,332833,S5.png,yog_t.png,Y1.png,Y9.png,Y10.png,Y12.png,Y2.png,Y3.png,482099
21520,21:33:37,9722,231234832,switch,choice2,0,0,1,26,10097,12801.26923,332833,Y1.png,yog_t.png,Y1.png,Y9.png,Y10.png,Y12.png,Y2.png,Y3.png,483716
21520,21:33:37,9722,231234832,choice,choice1,1,0,0,27,8401,12638.33333,341235,Y1.png,ready_t.png,RM11.png,RM1.png,RM5.png,RM7.png,RM13.png,RM2.png,492717
21520,21:33:37,9722,231234832,choice,choice3,0,0,1,28,17116,12798.28571,358352,Y1.png,soup_t.png,S12.png,S6.png,S9.png,S1.png,S4.png,S3.png,510414
21520,21:33:37,9722,231234832,switch,choice3,0,0,1,28,17116,12798.28571,358352,S12.png,soup_t.png,S12.png,S6.png,S9.png,S1.png,S4.png,S3.png,512464
21520,21:33:37,9722,231234832,choice,choice2,0,0,1,29,3658,12483.13793,362011,S12.png,yog_t.png,Y1.png,Y8.png,Y3.png,Y12.png,Y10.png,Y2.png,516703
21520,21:33:37,9722,231234832,switch,choice2,0,0,1,29,3658,12483.13793,362011,Y1.png,yog_t.png,Y1.png,Y8.png,Y3.png,Y12.png,Y10.png,Y2.png,518398
21520,21:33:37,9722,231234832,choice,choice2,0,0,1,30,7052,12302.13333,369064,Y1.png,cereal_t.png,BC11.png,BC3.png,BC2.png,BC12.png,BC8.png,BC1.png,526029
21520,21:33:37,9722,231234832,switch,choice2,0,0,1,30,7052,12302.13333,369064,BC11.png,cereal_t.png,BC11.png,BC3.png,BC2.png,BC12.png,BC8.png,BC1.png,527567
21620,14:52:44,8811,349811178,choice,choice4,0,0,1,1,7235,7236,7236,RM11.png,ready_t.png,RM11.png,RM1.png,RM5.png,RM7.png,RM13.png,RM2.png,89384
21620,14:52:44,8811,349811178,switch,choice4,0,0,1,1,7235,7236,7236,RM11.png,ready_t.png,RM11.png,RM1.png,RM5.png,RM7.png,RM13.png,RM2.png,98837
21620,14:52:44,8811,349811178,choice,choice4,0,0,1,2,23375,15306,30612,RM11.png,sand_t.png,SW9.png,SW3.png,SW6.png,SW7.png,SW1.png,SW10.png,122774
21620,14:52:44,8811,349811178,switch,choice4,0,1,1,2,23375,15306,30612,SW9.png,sand_t.png,SW9.png,SW3.png,SW6.png,SW7.png,SW1.png,SW10.png,126193
21620,14:52:44,8811,349811178,choice,choice2,0,1,1,3,5506,12039.66667,36119,SW9.png,yog_t.png,Y12.png,Y8.png,Y2.png,Y11.png,Y10.png,Y3.png,132269
21620,14:52:44,8811,349811178,switch,choice2,0,1,1,3,5506,12039.66667,36119,Y12.png,yog_t.png,Y12.png,Y8.png,Y2.png,Y11.png,Y10.png,Y3.png,135628
21620,14:52:44,8811,349811178,choice,choice3,0,1,1,4,16420,13135,52540,Y12.png,sand_t.png,SW9.png,SW8.png,SW6.png,SW7.png,SW1.png,SW11.png,152617
21620,14:52:44,8811,349811178,switch,choice3,0,0,1,4,16420,13135,52540,SW9.png,sand_t.png,SW9.png,SW8.png,SW6.png,SW7.png,SW1.png,SW11.png,157075
21620,14:52:44,8811,349811178,choice,choice2,0,0,1,5,12796,13067.4,65337,SW9.png,sand_t.png,SW9.png,SW4.png,SW6.png,SW7.png,SW3.png,SW5.png,170442
21620,14:52:44,8811,349811178,switch,choice2,0,1,1,5,12796,13067.4,65337,SW9.png,sand_t.png,SW9.png,SW4.png,SW6.png,SW7.png,SW3.png,SW5.png,175052
21620,14:52:44,8811,349811178,choice,choice1,1,1,0,6,8967,12384.16667,74305,SW9.png,yog_t.png,Y13.png,Y6.png,Y12.png,Y10.png,Y2.png,Y3.png,184578
21620,14:52:44,8811,349811178,choice,choice1,1,1,0,7,12514,12402.85714,86820,SW9.png,crisps_t.png,C10.png,C4.png,C3.png,C2.png,C9.png,C6.png,197658
21620,14:52:44,8811,349811178,choice,choice3,0,1,1,8,9601,12052.75,96422,SW9.png,sand_t.png,SW11.png,SW10.png,SW6.png,SW7.png,SW1.png,SW8.png,207828
21620,14:52:44,8811,349811178,switch,choice3,0,1,1,8,9601,12052.75,96422,SW11.png,sand_t.png,SW11.png,SW10.png,SW6.png,SW7.png,SW1.png,SW8.png,210057
21620,14:52:44,8811,349811178,choice,choice1,1,1,0,9,15546,12441,111969,SW11.png,soup_t.png,S12.png,S6.png,S9.png,S1.png,S4.png,S3.png,226173
21620,14:52:44,8811,349811178,choice,choice2,0,1,1,10,6984,11895.4,118954,SW11.png,soup_t.png,S12.png,S5.png,S9.png,S3.png,S6.png,S13.png,233726
21620,14:52:44,8811,349811178,switch,choice2,0,1,1,10,6984,11895.4,118954,S12.png,soup_t.png,S12.png,S5.png,S9.png,S3.png,S6.png,S13.png,236139
21620,14:52:44,8811,349811178,choice,choice1,1,1,0,11,11620,11870.45455,130575,S12.png,crisps_t.png,C10.png,C4.png,C3.png,C6.png,C2.png,C7.png,248328
21620,14:52:44,8811,349811178,choice,choice2,0,1,1,12,12083,11888.25,142659,S12.png,soup_t.png,S12.png,S5.png,S9.png,S13.png,S3.png,S7.png,260975
21620,14:52:44,8811,349811178,switch,choice2,0,1,1,12,12083,11888.25,142659,S12.png,soup_t.png,S12.png,S5.png,S9.png,S13.png,S3.png,S7.png,263898
21620,14:52:44,8811,349811178,choice,choice2,0,1,1,13,8899,11658.38462,151559,S12.png,cereal_t.png,BC11.png,BC3.png,BC2.png,BC12.png,BC8.png,BC1.png,273357
21620,14:52:44,8811,349811178,switch,choice2,0,0,1,13,8899,11658.38462,151559,BC11.png,cereal_t.png,BC11.png,BC3.png,BC2.png,BC12.png,BC8.png,BC1.png,279487
21620,14:52:44,8811,349811178,choice,choice1,1,0,0,14,4744,11164.57143,156304,BC11.png,ready_t.png,RM11.png,RM1.png,RM5.png,RM8.png,RM13.png,RM2.png,284801
21620,14:52:44,8811,349811178,choice,choice3,0,0,1,15,9649,11063.6,165954,BC11.png,crisps_t.png,C10.png,C8.png,C5.png,C9.png,C2.png,C6.png,295022
21620,14:52:44,8811,349811178,switch,choice3,0,1,1,15,9649,11063.6,165954,C10.png,crisps_t.png,C10.png,C8.png,C5.png,C9.png,C2.png,C6.png,299390
21620,14:52:44,8811,349811178,breaktime,choice3,0,1,1,15,9649,11063.6,165954,C10.png,crisps_t.png,C10.png,C8.png,C5.png,C9.png,C2.png,C6.png,301553
21620,14:52:44,8811,349811178,choice,choice1,1,1,0,16,14920,11304.6875,180875,C10.png,yog_t.png,Y1.png,Y8.png,Y3.png,Y12.png,Y10.png,Y2.png,317042
21620,14:52:44,8811,349811178,choice,choice1,1,1,0,17,3032,10818.11765,183908,C10.png,soup_t.png,S12.png,S13.png,S9.png,S7.png,S3.png,S4.png,320637
21620,14:52:44,8811,349811178,choice,choice2,0,1,1,18,9441,10741.66667,193350,C10.png,yog_t.png,Y1.png,Y9.png,Y10.png,Y12.png,Y2.png,Y3.png,330645
21620,14:52:44,8811,349811178,switch,choice2,0,1,1,18,9441,10741.66667,193350,Y1.png,yog_t.png,Y1.png,Y9.png,Y10.png,Y12.png,Y2.png,Y3.png,332875
21620,14:52:44,8811,349811178,choice,choice3,0,1,1,19,9549,10678.94737,202900,Y1.png,cereal_t.png,BC1.png,BC12.png,BC2.png,BC4.png,BC8.png,BC5.png,342986
21620,14:52:44,8811,349811178,switch,choice3,0,1,1,19,9549,10678.94737,202900,BC1.png,cereal_t.png,BC1.png,BC12.png,BC2.png,BC4.png,BC8.png,BC5.png,349595
21620,14:52:44,8811,349811178,choice,choice3,0,1,1,20,14099,10850,217000,BC1.png,cereal_t.png,BC9.png,BC12.png,BC2.png,BC6.png,BC5.png,BC8.png,364269
21620,14:52:44,8811,349811178,switch,choice3,0,1,1,20,14099,10850,217000,BC9.png,cereal_t.png,BC9.png,BC12.png,BC2.png,BC6.png,BC5.png,BC8.png,369507
21620,14:52:44,8811,349811178,choice,choice4,0,1,1,21,15746,11083.19048,232747,BC9.png,ready_t.png,RM4.png,RM11.png,RM5.png,RM9.png,RM2.png,RM12.png,385815
21620,14:52:44,8811,349811178,switch,choice4,0,1,1,21,15746,11083.19048,232747,RM4.png,ready_t.png,RM4.png,RM11.png,RM5.png,RM9.png,RM2.png,RM12.png,389260
21620,14:52:44,8811,349811178,choice,choice2,0,1,1,22,8205,10952.40909,240953,RM4.png,yog_t.png,Y4.png,Y8.png,Y3.png,Y2.png,Y10.png,Y11.png,398024
21620,14:52:44,8811,349811178,switch,choice2,0,1,1,22,8205,10952.40909,240953,Y4.png,yog_t.png,Y4.png,Y8.png,Y3.png,Y2.png,Y10.png,Y11.png,400305
21620,14:52:44,8811,349811178,choice,choice2,0,1,1,23,5194,10702.08696,246148,Y4.png,cereal_t.png,BC1.png,BC3.png,BC2.png,BC5.png,BC8.png,BC9.png,406062
21620,14:52:44,8811,349811178,switch,choice2,0,1,1,23,5194,10702.08696,246148,BC1.png,cereal_t.png,BC1.png,BC3.png,BC2.png,BC5.png,BC8.png,BC9.png,408130
21620,14:52:44,8811,349811178,choice,choice3,0,1,1,24,8379,10605.33333,254528,BC1.png,crisps_t.png,C7.png,C4.png,C3.png,C12.png,C6.png,C9.png,417080
21620,14:52:44,8811,349811178,switch,choice3,0,1,1,24,8379,10605.33333,254528,C7.png,crisps_t.png,C7.png,C4.png,C3.png,C12.png,C6.png,C9.png,418872
21620,14:52:44,8811,349811178,choice,choice1,1,1,0,25,12020,10661.96,266549,C7.png,crisps_t.png,C5.png,C7.png,C3.png,C2.png,C11.png,C12.png,431470
21620,14:52:44,8811,349811178,choice,choice1,1,1,0,26,6182,10489.69231,272732,C7.png,soup_t.png,S5.png,S9.png,S6.png,S10.png,S13.png,S3.png,438215
21620,14:52:44,8811,349811178,choice,choice3,0,1,1,27,5271,10296.44444,278004,C7.png,sand_t.png,SW9.png,SW4.png,SW6.png,SW7.png,SW8.png,SW11.png,444054
21620,14:52:44,8811,349811178,switch,choice3,0,1,1,27,5271,10296.44444,278004,SW9.png,sand_t.png,SW9.png,SW4.png,SW6.png,SW7.png,SW8.png,SW11.png,446397
21620,14:52:44,8811,349811178,choice,choice1,1,1,0,28,8102,10218.10714,286107,SW9.png,soup_t.png,S5.png,S9.png,S6.png,S10.png,S13.png,S3.png,455068
21620,14:52:44,8811,349811178,choice,choice1,1,1,0,29,8352,10153.7931,294460,SW9.png,ready_t.png,RM11.png,RM1.png,RM5.png,RM7.png,RM13.png,RM2.png,463984
21620,14:52:44,8811,349811178,choice,choice1,1,1,0,30,9291,10125.06667,303752,SW9.png,soup_t.png,S12.png,S13.png,S9.png,S7.png,S3.png,S4.png,473839
21620,22:45:48,9699,416603742,choice,choice4,0,0,1,1,4561,4562,4562,RM11.png,ready_t.png,RM4.png,RM12.png,RM5.png,RM9.png,RM13.png,RM8.png,59485
21620,22:45:48,9699,416603742,switch,choice4,0,1,1,1,4561,4562,4562,RM4.png,ready_t.png,RM4.png,RM12.png,RM5.png,RM9.png,RM13.png,RM8.png,64332
21620,22:45:48,9699,416603742,choice,choice2,0,1,1,2,5141,4852,9704,RM4.png,yog_t.png,Y12.png,Y8.png,Y2.png,Y11.png,Y10.png,Y3.png,70046
21620,22:45:48,9699,416603742,switch,choice2,0,1,1,2,5141,4852,9704,Y12.png,yog_t.png,Y12.png,Y8.png,Y2.png,Y11.png,Y10.png,Y3.png,81400
21620,22:45:48,9699,416603742,choice,choice2,0,1,1,3,2154,3953,11859,Y12.png,cereal_t.png,BC1.png,BC3.png,BC2.png,BC5.png,BC8.png,BC9.png,84141
21620,22:45:48,9699,416603742,switch,choice2,0,0,1,3,2154,3953,11859,BC1.png,cereal_t.png,BC1.png,BC3.png,BC2.png,BC5.png,BC8.png,BC9.png,86648
21620,22:45:48,9699,416603742,choice,choice4,0,0,1,4,5178,4259.5,17038,BC1.png,ready_t.png,RM4.png,RM11.png,RM5.png,RM9.png,RM2.png,RM12.png,92398
21620,22:45:48,9699,416603742,switch,choice4,0,0,1,4,5178,4259.5,17038,RM4.png,ready_t.png,RM4.png,RM11.png,RM5.png,RM9.png,RM2.png,RM12.png,94949
21620,22:45:48,9699,416603742,choice,choice1,1,0,0,5,7707,4949.2,24746,RM4.png,sand_t.png,SW11.png,SW10.png,SW6.png,SW7.png,SW1.png,SW8.png,103244
21620,22:45:48,9699,416603742,choice,choice3,0,0,1,6,5703,5075,30450,RM4.png,soup_t.png,S12.png,S6.png,S9.png,S1.png,S4.png,S3.png,109539
21620,22:45:48,9699,416603742,switch,choice3,0,1,1,6,5703,5075,30450,S12.png,soup_t.png,S12.png,S6.png,S9.png,S1.png,S4.png,S3.png,112863
21620,22:45:48,9699,416603742,choice,choice1,1,1,0,7,4603,5007.714286,35054,S12.png,cereal_t.png,BC11.png,BC3.png,BC2.png,BC9.png,BC8.png,BC1.png,118037
21620,22:45:48,9699,416603742,choice,choice1,1,1,0,8,3961,4877,39016,S12.png,yog_t.png,Y13.png,Y6.png,Y12.png,Y10.png,Y2.png,Y3.png,122578
21620,22:45:48,9699,416603742,choice,choice1,1,1,0,9,3910,4769.666667,42927,S12.png,soup_t.png,S5.png,S9.png,S6.png,S10.png,S13.png,S3.png,127060
21620,22:45:48,9699,416603742,choice,choice5,0,1,1,10,5118,4804.6,48046,S12.png,cereal_t.png,BC9.png,BC12.png,BC2.png,BC6.png,BC5.png,BC8.png,132751
21620,22:45:48,9699,416603742,switch,choice5,0,1,1,10,5118,4804.6,48046,BC9.png,cereal_t.png,BC9.png,BC12.png,BC2.png,BC6.png,BC5.png,BC8.png,137401
21620,22:45:48,9699,416603742,choice,choice1,1,1,0,11,13528,5597.727273,61575,BC9.png,crisps_t.png,C5.png,C7.png,C3.png,C2.png,C11.png,C12.png,151509
21620,22:45:48,9699,416603742,choice,choice3,0,1,1,12,6219,5649.583333,67795,BC9.png,sand_t.png,SW9.png,SW8.png,SW6.png,SW7.png,SW1.png,SW11.png,158299
21620,22:45:48,9699,416603742,switch,choice3,0,1,1,12,6219,5649.583333,67795,SW9.png,sand_t.png,SW9.png,SW8.png,SW6.png,SW7.png,SW1.png,SW11.png,164107
21620,22:45:48,9699,416603742,choice,choice1,1,1,0,13,10463,6019.923077,78259,SW9.png,ready_t.png,RM11.png,RM1.png,RM5.png,RM7.png,RM13.png,RM2.png,175142
21620,22:45:48,9699,416603742,choice,choice1,1,1,0,14,5431,5977.928571,83691,SW9.png,crisps_t.png,C7.png,C4.png,C3.png,C12.png,C6.png,C9.png,181141
21620,22:45:48,9699,416603742,choice,choice1,1,1,0,15,7886,6105.2,91578,SW9.png,crisps_t.png,C10.png,C4.png,C3.png,C2.png,C9.png,C6.png,189597
21620,22:45:48,9699,416603742,breaktime,choice1,1,1,0,15,7886,6105.2,91578,SW9.png,crisps_t.png,C10.png,C4.png,C3.png,C2.png,C9.png,C6.png,192777
21620,22:45:48,9699,416603742,choice,choice1,1,1,0,16,8421,6250,100000,SW9.png,soup_t.png,S12.png,S5.png,S9.png,S3.png,S6.png,S13.png,201781
21620,22:45:48,9699,416603742,choice,choice1,1,1,0,17,6304,6253.235294,106305,SW9.png,soup_t.png,S12.png,S5.png,S9.png,S13.png,S3.png,S7.png,208680
21620,22:45:48,9699,416603742,choice,choice2,0,1,1,18,5142,6191.555556,111448,SW9.png,cereal_t.png,BC11.png,BC3.png,BC2.png,BC12.png,BC8.png,BC1.png,214400
21620,22:45:48,9699,416603742,switch,choice2,0,1,1,18,5142,6191.555556,111448,BC11.png,cereal_t.png,BC11.png,BC3.png,BC2.png,BC12.png,BC8.png,BC1.png,218865
21620,22:45:48,9699,416603742,choice,choice1,1,1,0,19,7821,6277.368421,119270,BC11.png,yog_t.png,Y1.png,Y9.png,Y10.png,Y12.png,Y2.png,Y3.png,227261
21620,22:45:48,9699,416603742,choice,choice1,1,1,0,20,8192,6373.15,127463,BC11.png,crisps_t.png,C10.png,C4.png,C3.png,C6.png,C2.png,C7.png,236032
21620,22:45:48,9699,416603742,choice,choice1,1,1,0,21,5676,6340,133140,BC11.png,ready_t.png,RM11.png,RM1.png,RM5.png,RM3.png,RM13.png,RM2.png,242282
21620,22:45:48,9699,416603742,choice,choice1,1,1,0,22,3893,6228.818182,137034,BC11.png,crisps_t.png,C10.png,C8.png,C5.png,C9.png,C2.png,C6.png,246748
21620,22:45:48,9699,416603742,choice,choice1,1,1,0,23,6451,6238.521739,143486,BC11.png,sand_t.png,SW9.png,SW4.png,SW6.png,SW7.png,SW3.png,SW5.png,253772
21620,22:45:48,9699,416603742,choice,choice1,1,1,0,24,3568,6127.291667,147055,BC11.png,yog_t.png,Y1.png,Y8.png,Y3.png,Y12.png,Y10.png,Y2.png,257921
21620,22:45:48,9699,416603742,choice,choice1,1,1,0,25,7224,6171.2,154280,BC11.png,soup_t.png,S12.png,S13.png,S9.png,S7.png,S3.png,S4.png,265727
21620,22:45:48,9699,416603742,choice,choice1,1,1,0,26,5131,6131.230769,159412,BC11.png,ready_t.png,RM11.png,RM1.png,RM5.png,RM8.png,RM13.png,RM2.png,271439
21620,22:45:48,9699,416603742,choice,choice1,1,1,0,27,6684,6151.740741,166097,BC11.png,sand_t.png,SW9.png,SW4.png,SW6.png,SW7.png,SW8.png,SW11.png,278691
21620,22:45:48,9699,416603742,choice,choice1,1,1,0,28,4135,6079.75,170233,BC11.png,sand_t.png,SW9.png,SW4.png,SW6.png,SW7.png,SW8.png,SW11.png,283408
21620,22:45:48,9699,416603742,choice,choice1,1,1,0,29,5233,6050.586207,175467,BC11.png,crisps_t.png,C7.png,C4.png,C3.png,C12.png,C6.png,C9.png,289223
21620,22:45:48,9699,416603742,choice,choice1,1,1,0,30,8762,6141,184230,BC11.png,ready_t.png,RM4.png,RM12.png,RM5.png,RM9.png,RM13.png,RM8.png,298568
22420,20:05:26,9776,847625973,choice,choice2,0,0,1,1,8930,8931,8931,RM11.png,yog_t.png,Y12.png,Y8.png,Y2.png,Y11.png,Y10.png,Y3.png,120771
22420,20:05:26,9776,847625973,switch,choice2,0,0,1,1,8930,8931,8931,Y12.png,yog_t.png,Y12.png,Y8.png,Y2.png,Y11.png,Y10.png,Y3.png,130588
22420,20:05:26,9776,847625973,choice,choice2,0,0,1,2,15159,12045.5,24091,Y12.png,cereal_t.png,BC1.png,BC12.png,BC2.png,BC4.png,BC8.png,BC5.png,146367
22420,20:05:26,9776,847625973,switch,choice2,0,0,1,2,15159,12045.5,24091,BC1.png,cereal_t.png,BC1.png,BC12.png,BC2.png,BC4.png,BC8.png,BC5.png,151118
22420,20:05:26,9776,847625973,choice,choice2,0,0,1,3,11862,11984.66667,35954,BC1.png,cereal_t.png,BC11.png,BC3.png,BC2.png,BC12.png,BC8.png,BC1.png,163606
22420,20:05:26,9776,847625973,switch,choice2,0,0,1,3,11862,11984.66667,35954,BC11.png,cereal_t.png,BC11.png,BC3.png,BC2.png,BC12.png,BC8.png,BC1.png,170093
22420,20:05:26,9776,847625973,choice,choice1,1,0,0,4,10494,11612.25,46449,BC11.png,crisps_t.png,C5.png,C7.png,C3.png,C2.png,C11.png,C12.png,181204
22420,20:05:26,9776,847625973,choice,choice3,0,0,1,5,13606,12011.2,60056,BC11.png,sand_t.png,SW9.png,SW3.png,SW6.png,SW7.png,SW1.png,SW10.png,195435
22420,20:05:26,9776,847625973,switch,choice3,0,0,1,5,13606,12011.2,60056,SW9.png,sand_t.png,SW9.png,SW3.png,SW6.png,SW7.png,SW1.png,SW10.png,198346
22420,20:05:26,9776,847625973,choice,choice2,0,0,1,6,9650,11617.83333,69707,SW9.png,yog_t.png,Y4.png,Y8.png,Y3.png,Y2.png,Y10.png,Y11.png,208614
22420,20:05:26,9776,847625973,switch,choice2,0,1,1,6,9650,11617.83333,69707,Y4.png,yog_t.png,Y4.png,Y8.png,Y3.png,Y2.png,Y10.png,Y11.png,211662
22420,20:05:26,9776,847625973,choice,choice3,0,1,1,7,6667,10910.71429,76375,Y4.png,cereal_t.png,BC9.png,BC12.png,BC2.png,BC6.png,BC5.png,BC8.png,218947
22420,20:05:26,9776,847625973,switch,choice3,0,0,1,7,6667,10910.71429,76375,BC9.png,cereal_t.png,BC9.png,BC12.png,BC2.png,BC6.png,BC5.png,BC8.png,221222
22420,20:05:26,9776,847625973,choice,choice4,0,0,1,8,10367,10842.875,86743,BC9.png,ready_t.png,RM11.png,RM1.png,RM5.png,RM8.png,RM13.png,RM2.png,232215
22420,20:05:26,9776,847625973,switch,choice4,0,1,1,8,10367,10842.875,86743,RM11.png,ready_t.png,RM11.png,RM1.png,RM5.png,RM8.png,RM13.png,RM2.png,235344
22420,20:05:26,9776,847625973,choice,choice3,0,1,1,9,5848,10288,92592,RM11.png,sand_t.png,SW9.png,SW4.png,SW6.png,SW7.png,SW8.png,SW11.png,241830
22420,20:05:26,9776,847625973,switch,choice3,0,0,1,9,5848,10288,92592,SW9.png,sand_t.png,SW9.png,SW4.png,SW6.png,SW7.png,SW8.png,SW11.png,243589
22420,20:05:26,9776,847625973,choice,choice4,0,0,1,10,1007,9360,93600,SW9.png,ready_t.png,RM11.png,RM1.png,RM5.png,RM7.png,RM13.png,RM2.png,245224
22420,20:05:26,9776,847625973,switch,choice4,0,1,1,10,1007,9360,93600,RM11.png,ready_t.png,RM11.png,RM1.png,RM5.png,RM7.png,RM13.png,RM2.png,246369
22420,20:05:26,9776,847625973,choice,choice3,0,1,1,11,11444,9549.545455,105045,RM11.png,soup_t.png,S12.png,S6.png,S9.png,S1.png,S4.png,S3.png,258426
22420,20:05:26,9776,847625973,switch,choice3,0,0,1,11,11444,9549.545455,105045,S12.png,soup_t.png,S12.png,S6.png,S9.png,S1.png,S4.png,S3.png,261540
22420,20:05:26,9776,847625973,choice,choice4,0,0,1,12,2189,8936.25,107235,S12.png,ready_t.png,RM4.png,RM12.png,RM5.png,RM9.png,RM13.png,RM8.png,264357
22420,20:05:26,9776,847625973,switch,choice4,0,0,1,12,2189,8936.25,107235,RM4.png,ready_t.png,RM4.png,RM12.png,RM5.png,RM9.png,RM13.png,RM8.png,266082
22420,20:05:26,9776,847625973,choice,choice2,0,0,1,13,13251,9268.230769,120487,RM4.png,crisps_t.png,C7.png,C4.png,C3.png,C12.png,C6.png,C9.png,279952
22420,20:05:26,9776,847625973,switch,choice2,0,0,1,13,13251,9268.230769,120487,C7.png,crisps_t.png,C7.png,C4.png,C3.png,C12.png,C6.png,C9.png,287273
22420,20:05:26,9776,847625973,choice,choice4,0,0,1,14,5046,8966.714286,125534,C7.png,ready_t.png,RM4.png,RM11.png,RM5.png,RM9.png,RM2.png,RM12.png,292948
22420,20:05:26,9776,847625973,switch,choice4,0,1,1,14,5046,8966.714286,125534,RM4.png,ready_t.png,RM4.png,RM11.png,RM5.png,RM9.png,RM2.png,RM12.png,294359
22420,20:05:26,9776,847625973,choice,choice3,0,1,1,15,4584,8674.6,130119,RM4.png,sand_t.png,SW9.png,SW4.png,SW6.png,SW7.png,SW3.png,SW5.png,299570
22420,20:05:26,9776,847625973,switch,choice3,0,0,1,15,4584,8674.6,130119,SW9.png,sand_t.png,SW9.png,SW4.png,SW6.png,SW7.png,SW3.png,SW5.png,301116
22420,20:05:26,9776,847625973,breaktime,choice3,0,0,1,15,4584,8674.6,130119,SW9.png,sand_t.png,SW9.png,SW4.png,SW6.png,SW7.png,SW3.png,SW5.png,307932
22420,20:05:26,9776,847625973,choice,choice6,0,0,1,16,5112,8452,135232,SW9.png,sand_t.png,SW9.png,SW8.png,SW6.png,SW7.png,SW1.png,SW11.png,313666
22420,20:05:26,9776,847625973,switch,choice6,0,0,1,16,5112,8452,135232,SW9.png,sand_t.png,SW9.png,SW8.png,SW6.png,SW7.png,SW1.png,SW11.png,315077
22420,20:05:26,9776,847625973,choice,choice1,1,0,0,17,7325,8385.764706,142558,SW9.png,crisps_t.png,C10.png,C8.png,C5.png,C9.png,C2.png,C6.png,323029
22420,20:05:26,9776,847625973,choice,choice1,1,0,0,18,5897,8247.555556,148456,SW9.png,yog_t.png,Y1.png,Y9.png,Y10.png,Y12.png,Y2.png,Y3.png,329553
22420,20:05:26,9776,847625973,choice,choice1,1,0,0,19,7310,8198.263158,155767,SW9.png,soup_t.png,S5.png,S9.png,S6.png,S10.png,S13.png,S3.png,337483
22420,20:05:26,9776,847625973,choice,choice3,0,0,1,20,8143,8195.55,163911,SW9.png,cereal_t.png,BC1.png,BC3.png,BC2.png,BC5.png,BC8.png,BC9.png,346249
22420,20:05:26,9776,847625973,switch,choice3,0,0,1,20,8143,8195.55,163911,BC1.png,cereal_t.png,BC1.png,BC3.png,BC2.png,BC5.png,BC8.png,BC9.png,349947
22420,20:05:26,9776,847625973,choice,choice2,0,0,1,21,12373,8394.52381,176285,BC1.png,crisps_t.png,C10.png,C4.png,C3.png,C6.png,C2.png,C7.png,362947
22420,20:05:26,9776,847625973,switch,choice2,0,1,1,21,12373,8394.52381,176285,C10.png,crisps_t.png,C10.png,C4.png,C3.png,C6.png,C2.png,C7.png,365931
22420,20:05:26,9776,847625973,choice,choice2,0,1,1,22,6678,8316.545455,182964,C10.png,soup_t.png,S12.png,S5.png,S9.png,S13.png,S3.png,S7.png,373253
22420,20:05:26,9776,847625973,switch,choice2,0,0,1,22,6678,8316.545455,182964,S12.png,soup_t.png,S12.png,S5.png,S9.png,S13.png,S3.png,S7.png,375536
22420,20:05:26,9776,847625973,choice,choice3,0,0,1,23,1803,8033.391304,184768,S12.png,yog_t.png,Y13.png,Y6.png,Y12.png,Y10.png,Y2.png,Y3.png,377962
22420,20:05:26,9776,847625973,switch,choice3,0,0,1,23,1803,8033.391304,184768,Y13.png,yog_t.png,Y13.png,Y6.png,Y12.png,Y10.png,Y2.png,Y3.png,379251
22420,20:05:26,9776,847625973,choice,choice3,0,0,1,24,7511,8011.666667,192280,Y13.png,ready_t.png,RM11.png,RM1.png,RM5.png,RM3.png,RM13.png,RM2.png,387387
22420,20:05:26,9776,847625973,switch,choice3,0,0,1,24,7511,8011.666667,192280,RM11.png,ready_t.png,RM11.png,RM1.png,RM5.png,RM3.png,RM13.png,RM2.png,388668
22420,20:05:26,9776,847625973,choice,choice3,0,0,1,25,2713,7799.76,194994,RM11.png,soup_t.png,S12.png,S13.png,S9.png,S7.png,S3.png,S4.png,392007
22420,20:05:26,9776,847625973,switch,choice3,0,0,1,25,2713,7799.76,194994,S12.png,soup_t.png,S12.png,S13.png,S9.png,S7.png,S3.png,S4.png,393829
22420,20:05:26,9776,847625973,choice,choice1,1,0,0,26,7128,7773.961538,202123,S12.png,cereal_t.png,BC11.png,BC3.png,BC2.png,BC9.png,BC8.png,BC1.png,401587
22420,20:05:26,9776,847625973,choice,choice3,0,0,1,27,7187,7752.259259,209311,S12.png,sand_t.png,SW11.png,SW10.png,SW6.png,SW7.png,SW1.png,SW8.png,409400
22420,20:05:26,9776,847625973,switch,choice3,0,1,1,27,7187,7752.259259,209311,SW11.png,sand_t.png,SW11.png,SW10.png,SW6.png,SW7.png,SW1.png,SW8.png,411518
22420,20:05:26,9776,847625973,choice,choice6,0,1,1,28,1273,7520.892857,210585,SW11.png,sand_t.png,SW9.png,SW8.png,SW6.png,SW7.png,SW1.png,SW11.png,413418
22420,20:05:26,9776,847625973,switch,choice6,0,0,1,28,1273,7520.892857,210585,SW9.png,sand_t.png,SW9.png,SW8.png,SW6.png,SW7.png,SW1.png,SW11.png,414735
22420,20:05:26,9776,847625973,choice,choice2,0,0,1,29,1362,7308.551724,211948,SW9.png,yog_t.png,Y4.png,Y8.png,Y3.png,Y2.png,Y10.png,Y11.png,416723
22420,20:05:26,9776,847625973,switch,choice2,0,0,1,29,1362,7308.551724,211948,Y4.png,yog_t.png,Y4.png,Y8.png,Y3.png,Y2.png,Y10.png,Y11.png,418745
22420,20:05:26,9776,847625973,choice,choice4,0,0,1,30,1872,7127.366667,213821,Y4.png,ready_t.png,RM4.png,RM11.png,RM5.png,RM9.png,RM2.png,RM12.png,421235
22420,20:05:26,9776,847625973,switch,choice4,0,0,1,30,1872,7127.366667,213821,RM4.png,ready_t.png,RM4.png,RM11.png,RM5.png,RM9.png,RM2.png,RM12.png,422579
31220,10:33:28,7964,739703286,choice,choice2,0,0,1,1,16985,16986,16986,RM11.png,soup_t.png,S12.png,S5.png,S9.png,S13.png,S3.png,S7.png,105110
31220,10:33:28,7964,739703286,switch,choice2,0,0,1,1,16985,16986,16986,S12.png,soup_t.png,S12.png,S5.png,S9.png,S13.png,S3.png,S7.png,112641
31220,10:33:28,7964,739703286,choice,choice2,0,0,1,2,24975,20981,41962,S12.png,yog_t.png,Y4.png,Y8.png,Y3.png,Y2.png,Y10.png,Y11.png,138254
31220,10:33:28,7964,739703286,switch,choice2,0,1,1,2,24975,20981,41962,Y4.png,yog_t.png,Y4.png,Y8.png,Y3.png,Y2.png,Y10.png,Y11.png,145789
31220,10:33:28,7964,739703286,choice,choice1,1,1,0,3,19548,20503.66667,61511,Y4.png,soup_t.png,S5.png,S9.png,S6.png,S10.png,S13.png,S3.png,165960
31220,10:33:28,7964,739703286,choice,choice2,0,1,1,4,12952,18616,74464,Y4.png,cereal_t.png,BC11.png,BC3.png,BC2.png,BC12.png,BC8.png,BC1.png,179534
31220,10:33:28,7964,739703286,switch,choice2,0,0,1,4,12952,18616,74464,BC11.png,cereal_t.png,BC11.png,BC3.png,BC2.png,BC12.png,BC8.png,BC1.png,188658
31220,10:33:28,7964,739703286,choice,choice1,1,0,0,5,17265,18346,91730,BC11.png,ready_t.png,RM11.png,RM1.png,RM5.png,RM8.png,RM13.png,RM2.png,206564
31220,10:33:28,7964,739703286,choice,choice3,0,0,1,6,12448,17363.16667,104179,BC11.png,cereal_t.png,BC1.png,BC12.png,BC2.png,BC4.png,BC8.png,BC5.png,219633
31220,10:33:28,7964,739703286,switch,choice3,0,0,1,6,12448,17363.16667,104179,BC1.png,cereal_t.png,BC1.png,BC12.png,BC2.png,BC4.png,BC8.png,BC5.png,225846
31220,10:33:28,7964,739703286,choice,choice1,1,0,0,7,46979,21594.14286,151159,BC1.png,sand_t.png,SW11.png,SW10.png,SW6.png,SW7.png,SW1.png,SW8.png,273448
31220,10:33:28,7964,739703286,choice,choice1,1,0,0,8,16807,20995.875,167967,BC1.png,crisps_t.png,C10.png,C4.png,C3.png,C2.png,C9.png,C6.png,290878
31220,10:33:28,7964,739703286,choice,choice2,0,0,1,9,18231,20688.77778,186199,BC1.png,cereal_t.png,BC11.png,BC3.png,BC2.png,BC9.png,BC8.png,BC1.png,309739
31220,10:33:28,7964,739703286,switch,choice2,0,0,1,9,18231,20688.77778,186199,BC11.png,cereal_t.png,BC11.png,BC3.png,BC2.png,BC9.png,BC8.png,BC1.png,315018
31220,10:33:28,7964,739703286,choice,choice2,0,0,1,10,22078,20827.8,208278,BC11.png,yog_t.png,Y1.png,Y9.png,Y10.png,Y12.png,Y2.png,Y3.png,337719
31220,10:33:28,7964,739703286,switch,choice2,0,1,1,10,22078,20827.8,208278,Y1.png,yog_t.png,Y1.png,Y9.png,Y10.png,Y12.png,Y2.png,Y3.png,346887
31220,10:33:28,7964,739703286,choice,choice4,0,1,1,11,10182,19860.09091,218461,Y1.png,ready_t.png,RM4.png,RM12.png,RM5.png,RM9.png,RM13.png,RM8.png,357692
31220,10:33:28,7964,739703286,switch,choice4,0,0,1,11,10182,19860.09091,218461,RM4.png,ready_t.png,RM4.png,RM12.png,RM5.png,RM9.png,RM13.png,RM8.png,360966
31220,10:33:28,7964,739703286,choice,choice2,0,0,1,12,11338,19150,229800,RM4.png,yog_t.png,Y12.png,Y8.png,Y2.png,Y11.png,Y10.png,Y3.png,372932
31220,10:33:28,7964,739703286,switch,choice2,0,0,1,12,11338,19150,229800,Y12.png,yog_t.png,Y12.png,Y8.png,Y2.png,Y11.png,Y10.png,Y3.png,379155
31220,10:33:28,7964,739703286,choice,choice2,0,0,1,13,18017,19062.92308,247818,Y12.png,yog_t.png,Y1.png,Y8.png,Y3.png,Y12.png,Y10.png,Y2.png,397795
31220,10:33:28,7964,739703286,switch,choice2,0,1,1,13,18017,19062.92308,247818,Y1.png,yog_t.png,Y1.png,Y8.png,Y3.png,Y12.png,Y10.png,Y2.png,420185
31220,10:33:28,7964,739703286,choice,choice4,0,1,1,14,7194,18215.21429,255013,Y1.png,ready_t.png,RM4.png,RM11.png,RM5.png,RM9.png,RM2.png,RM12.png,427992
31220,10:33:28,7964,739703286,switch,choice4,0,0,1,14,7194,18215.21429,255013,RM4.png,ready_t.png,RM4.png,RM11.png,RM5.png,RM9.png,RM2.png,RM12.png,431737
31220,10:33:28,7964,739703286,choice,choice3,0,0,1,15,13147,17877.4,268161,RM4.png,soup_t.png,S12.png,S13.png,S9.png,S7.png,S3.png,S4.png,445513
31220,10:33:28,7964,739703286,switch,choice3,0,0,1,15,13147,17877.4,268161,S12.png,soup_t.png,S12.png,S13.png,S9.png,S7.png,S3.png,S4.png,448050
31220,10:33:28,7964,739703286,breaktime,choice3,0,0,1,15,13147,17877.4,268161,S12.png,soup_t.png,S12.png,S13.png,S9.png,S7.png,S3.png,S4.png,450117
31220,10:33:28,7964,739703286,choice,choice6,0,0,1,16,20055,18013.5625,288217,S12.png,sand_t.png,SW9.png,SW4.png,SW6.png,SW7.png,SW8.png,SW11.png,470788
31220,10:33:28,7964,739703286,switch,choice6,0,0,1,16,20055,18013.5625,288217,SW9.png,sand_t.png,SW9.png,SW4.png,SW6.png,SW7.png,SW8.png,SW11.png,479829
31220,10:33:28,7964,739703286,choice,choice1,1,0,0,17,29281,18676.41176,317499,SW9.png,crisps_t.png,C10.png,C4.png,C3.png,C6.png,C2.png,C7.png,509733
31220,10:33:28,7964,739703286,choice,choice2,0,0,1,18,11643,18285.72222,329143,SW9.png,cereal_t.png,BC1.png,BC3.png,BC2.png,BC5.png,BC8.png,BC9.png,521997
31220,10:33:28,7964,739703286,switch,choice2,0,0,1,18,11643,18285.72222,329143,BC1.png,cereal_t.png,BC1.png,BC3.png,BC2.png,BC5.png,BC8.png,BC9.png,524618
31220,10:33:28,7964,739703286,choice,choice3,0,0,1,19,11477,17927.42105,340621,BC1.png,cereal_t.png,BC9.png,BC12.png,BC2.png,BC6.png,BC5.png,BC8.png,536718
31220,10:33:28,7964,739703286,switch,choice3,0,0,1,19,11477,17927.42105,340621,BC9.png,cereal_t.png,BC9.png,BC12.png,BC2.png,BC6.png,BC5.png,BC8.png,539176
31220,10:33:28,7964,739703286,choice,choice1,1,0,0,20,25250,18293.6,365872,BC9.png,crisps_t.png,C5.png,C7.png,C3.png,C2.png,C11.png,C12.png,565040
31220,10:33:28,7964,739703286,choice,choice2,0,0,1,21,27040,18710.14286,392913,BC9.png,crisps_t.png,C7.png,C4.png,C3.png,C12.png,C6.png,C9.png,592699
31220,10:33:28,7964,739703286,switch,choice2,0,0,1,21,27040,18710.14286,392913,C7.png,crisps_t.png,C7.png,C4.png,C3.png,C12.png,C6.png,C9.png,598038
31220,10:33:28,7964,739703286,choice,choice2,0,0,1,22,9779,18304.22727,402693,C7.png,yog_t.png,Y13.png,Y6.png,Y12.png,Y10.png,Y2.png,Y3.png,608439
31220,10:33:28,7964,739703286,switch,choice2,0,0,1,22,9779,18304.22727,402693,Y13.png,yog_t.png,Y13.png,Y6.png,Y12.png,Y10.png,Y2.png,Y3.png,611347
31220,10:33:28,7964,739703286,choice,choice3,0,0,1,23,16456,18223.91304,419150,Y13.png,crisps_t.png,C10.png,C8.png,C5.png,C9.png,C2.png,C6.png,628418
31220,10:33:28,7964,739703286,switch,choice3,0,0,1,23,16456,18223.91304,419150,C10.png,crisps_t.png,C10.png,C8.png,C5.png,C9.png,C2.png,C6.png,635342
31220,10:33:28,7964,739703286,choice,choice1,1,0,0,24,25231,18515.91667,444382,C10.png,soup_t.png,S12.png,S6.png,S9.png,S1.png,S4.png,S3.png,661195
31220,10:33:28,7964,739703286,choice,choice1,1,0,0,25,13149,18301.28,457532,C10.png,ready_t.png,RM11.png,RM1.png,RM5.png,RM3.png,RM13.png,RM2.png,674964
31220,10:33:28,7964,739703286,choice,choice2,0,0,1,26,14969,18173.15385,472502,C10.png,sand_t.png,SW9.png,SW4.png,SW6.png,SW7.png,SW3.png,SW5.png,690552
31220,10:33:28,7964,739703286,switch,choice2,0,0,1,26,14969,18173.15385,472502,SW9.png,sand_t.png,SW9.png,SW4.png,SW6.png,SW7.png,SW3.png,SW5.png,694115
31220,10:33:28,7964,739703286,choice,choice1,1,0,0,27,22226,18323.2963,494729,SW9.png,ready_t.png,RM11.png,RM1.png,RM5.png,RM7.png,RM13.png,RM2.png,716960
31220,10:33:28,7964,739703286,choice,choice1,1,0,0,28,8748,17981.35714,503478,SW9.png,crisps_t.png,C10.png,C4.png,C3.png,C2.png,C9.png,C6.png,726333
31220,10:33:28,7964,739703286,choice,choice2,0,0,1,29,17671,17970.68966,521150,SW9.png,yog_t.png,Y13.png,Y6.png,Y12.png,Y10.png,Y2.png,Y3.png,744624
31220,10:33:28,7964,739703286,switch,choice2,0,0,1,29,17671,17970.68966,521150,Y13.png,yog_t.png,Y13.png,Y6.png,Y12.png,Y10.png,Y2.png,Y3.png,748859
31220,10:33:28,7964,739703286,choice,choice1,1,0,0,30,10236,17712.9,531387,Y13.png,crisps_t.png,C10.png,C4.png,C3.png,C6.png,C2.png,C7.png,759724
40620,21:02:26,9830,597098148,choice,choice1,1,0,0,1,8169,8170,8170,RM11.png,soup_t.png,S5.png,S9.png,S6.png,S10.png,S13.png,S3.png,70899
40620,21:02:26,9830,597098148,choice,choice3,0,0,1,2,5753,6962,13924,RM11.png,crisps_t.png,C10.png,C8.png,C5.png,C9.png,C2.png,C6.png,77230
40620,21:02:26,9830,597098148,switch,choice3,0,0,1,2,5753,6962,13924,C10.png,crisps_t.png,C10.png,C8.png,C5.png,C9.png,C2.png,C6.png,83742
40620,21:02:26,9830,597098148,choice,choice3,0,0,1,3,6849,6924.666667,20774,C10.png,cereal_t.png,BC9.png,BC12.png,BC2.png,BC6.png,BC5.png,BC8.png,91157
40620,21:02:26,9830,597098148,switch,choice3,0,0,1,3,6849,6924.666667,20774,BC9.png,cereal_t.png,BC9.png,BC12.png,BC2.png,BC6.png,BC5.png,BC8.png,94062
40620,21:02:26,9830,597098148,choice,choice1,1,0,0,4,18263,9759.5,39038,BC9.png,soup_t.png,S12.png,S6.png,S9.png,S1.png,S4.png,S3.png,112900
40620,21:02:26,9830,597098148,choice,choice6,0,0,1,5,6029,9013.6,45068,BC9.png,crisps_t.png,C10.png,C4.png,C3.png,C6.png,C2.png,C7.png,119494
40620,21:02:26,9830,597098148,switch,choice6,0,1,1,5,6029,9013.6,45068,C10.png,crisps_t.png,C10.png,C4.png,C3.png,C6.png,C2.png,C7.png,121578
40620,21:02:26,9830,597098148,choice,choice2,0,1,1,6,2850,7986.5,47919,C10.png,cereal_t.png,BC1.png,BC3.png,BC2.png,BC5.png,BC8.png,BC9.png,124996
40620,21:02:26,9830,597098148,switch,choice2,0,0,1,6,2850,7986.5,47919,BC1.png,cereal_t.png,BC1.png,BC3.png,BC2.png,BC5.png,BC8.png,BC9.png,126799
40620,21:02:26,9830,597098148,choice,choice4,0,0,1,7,6062,7711.714286,53982,BC1.png,ready_t.png,RM4.png,RM12.png,RM5.png,RM9.png,RM13.png,RM8.png,133423
40620,21:02:26,9830,597098148,switch,choice4,0,1,1,7,6062,7711.714286,53982,RM4.png,ready_t.png,RM4.png,RM12.png,RM5.png,RM9.png,RM13.png,RM8.png,135497
40620,21:02:26,9830,597098148,choice,choice3,0,1,1,8,6334,7539.625,60317,RM4.png,soup_t.png,S12.png,S13.png,S9.png,S7.png,S3.png,S4.png,142392
40620,21:02:26,9830,597098148,switch,choice3,0,0,1,8,6334,7539.625,60317,S12.png,soup_t.png,S12.png,S13.png,S9.png,S7.png,S3.png,S4.png,144486
40620,21:02:26,9830,597098148,choice,choice2,0,0,1,9,34040,10484.22222,94358,S12.png,yog_t.png,Y1.png,Y9.png,Y10.png,Y12.png,Y2.png,Y3.png,179095
40620,21:02:26,9830,597098148,switch,choice2,0,0,1,9,34040,10484.22222,94358,Y1.png,yog_t.png,Y1.png,Y9.png,Y10.png,Y12.png,Y2.png,Y3.png,180939
40620,21:02:26,9830,597098148,choice,choice1,1,0,0,10,5710,10006.9,100069,Y1.png,ready_t.png,RM11.png,RM1.png,RM5.png,RM3.png,RM13.png,RM2.png,187221
40620,21:02:26,9830,597098148,choice,choice2,0,0,1,11,2775,9349.545455,102845,Y1.png,soup_t.png,S12.png,S5.png,S9.png,S13.png,S3.png,S7.png,190567
40620,21:02:26,9830,597098148,switch,choice2,0,0,1,11,2775,9349.545455,102845,S12.png,soup_t.png,S12.png,S5.png,S9.png,S13.png,S3.png,S7.png,192170
40620,21:02:26,9830,597098148,choice,choice1,1,0,0,12,6754,9133.333333,109600,S12.png,sand_t.png,SW11.png,SW10.png,SW6.png,SW7.png,SW1.png,SW8.png,199495
40620,21:02:26,9830,597098148,choice,choice1,1,0,0,13,3408,8693,113009,S12.png,crisps_t.png,C10.png,C4.png,C3.png,C2.png,C9.png,C6.png,203463
40620,21:02:26,9830,597098148,choice,choice2,0,0,1,14,7060,8576.428571,120070,S12.png,ready_t.png,RM4.png,RM11.png,RM5.png,RM9.png,RM2.png,RM12.png,211097
40620,21:02:26,9830,597098148,switch,choice2,0,0,1,14,7060,8576.428571,120070,RM4.png,ready_t.png,RM4.png,RM11.png,RM5.png,RM9.png,RM2.png,RM12.png,215926
40620,21:02:26,9830,597098148,choice,choice2,0,0,1,15,1557,8108.533333,121628,RM4.png,yog_t.png,Y13.png,Y6.png,Y12.png,Y10.png,Y2.png,Y3.png,218040
40620,21:02:26,9830,597098148,switch,choice2,0,0,1,15,1557,8108.533333,121628,Y13.png,yog_t.png,Y13.png,Y6.png,Y12.png,Y10.png,Y2.png,Y3.png,219683
40620,21:02:26,9830,597098148,breaktime,choice2,0,0,1,15,1557,8108.533333,121628,Y13.png,yog_t.png,Y13.png,Y6.png,Y12.png,Y10.png,Y2.png,Y3.png,642252
40620,21:02:26,9830,597098148,choice,choice1,1,0,0,16,10739,8273,132368,Y13.png,crisps_t.png,C7.png,C4.png,C3.png,C12.png,C6.png,C9.png,653563
40620,21:02:26,9830,597098148,choice,choice3,0,0,1,17,1576,7879.117647,133945,Y13.png,cereal_t.png,BC11.png,BC3.png,BC2.png,BC9.png,BC8.png,BC1.png,655697
40620,21:02:26,9830,597098148,switch,choice3,0,0,1,17,1576,7879.117647,133945,BC11.png,cereal_t.png,BC11.png,BC3.png,BC2.png,BC9.png,BC8.png,BC1.png,660136
40620,21:02:26,9830,597098148,choice,choice3,0,0,1,18,11486,8079.555556,145432,BC11.png,sand_t.png,SW9.png,SW3.png,SW6.png,SW7.png,SW1.png,SW10.png,672188
40620,21:02:26,9830,597098148,switch,choice3,0,0,1,18,11486,8079.555556,145432,SW9.png,sand_t.png,SW9.png,SW3.png,SW6.png,SW7.png,SW1.png,SW10.png,674554
40620,21:02:26,9830,597098148,choice,choice2,0,0,1,19,7686,8058.894737,153119,SW9.png,yog_t.png,Y1.png,Y8.png,Y3.png,Y12.png,Y10.png,Y2.png,682817
40620,21:02:26,9830,597098148,switch,choice2,0,0,1,19,7686,8058.894737,153119,Y1.png,yog_t.png,Y1.png,Y8.png,Y3.png,Y12.png,Y10.png,Y2.png,684581
40620,21:02:26,9830,597098148,choice,choice1,1,0,0,20,5857,7948.85,158977,Y1.png,ready_t.png,RM11.png,RM1.png,RM5.png,RM8.png,RM13.png,RM2.png,691002
40620,21:02:26,9830,597098148,choice,choice2,0,0,1,21,9020,7999.904762,167998,Y1.png,sand_t.png,SW9.png,SW4.png,SW6.png,SW7.png,SW3.png,SW5.png,700580
40620,21:02:26,9830,597098148,switch,choice2,0,0,1,21,9020,7999.904762,167998,SW9.png,sand_t.png,SW9.png,SW4.png,SW6.png,SW7.png,SW3.png,SW5.png,702564
40620,21:02:26,9830,597098148,choice,choice2,0,0,1,22,5082,7867.318182,173081,SW9.png,soup_t.png,S12.png,S5.png,S9.png,S3.png,S6.png,S13.png,708205
40620,21:02:26,9830,597098148,switch,choice2,0,0,1,22,5082,7867.318182,173081,S12.png,soup_t.png,S12.png,S5.png,S9.png,S3.png,S6.png,S13.png,710168
40620,21:02:26,9830,597098148,choice,choice1,1,0,0,23,3078,7659.130435,176160,S12.png,yog_t.png,Y12.png,Y8.png,Y2.png,Y11.png,Y10.png,Y3.png,713815
40620,21:02:26,9830,597098148,choice,choice2,0,0,1,24,3327,7478.666667,179488,S12.png,yog_t.png,Y4.png,Y8.png,Y3.png,Y2.png,Y10.png,Y11.png,717713
40620,21:02:26,9830,597098148,switch,choice2,0,0,1,24,3327,7478.666667,179488,Y4.png,yog_t.png,Y4.png,Y8.png,Y3.png,Y2.png,Y10.png,Y11.png,719196
40620,21:02:26,9830,597098148,choice,choice3,0,0,1,25,1713,7248.08,181202,Y4.png,cereal_t.png,BC11.png,BC3.png,BC2.png,BC12.png,BC8.png,BC1.png,721481
40620,21:02:26,9830,597098148,switch,choice3,0,0,1,25,1713,7248.08,181202,BC11.png,cereal_t.png,BC11.png,BC3.png,BC2.png,BC12.png,BC8.png,BC1.png,722973
40620,21:02:26,9830,597098148,choice,choice3,0,0,1,26,4278,7133.884615,185481,BC11.png,sand_t.png,SW9.png,SW8.png,SW6.png,SW7.png,SW1.png,SW11.png,727811
40620,21:02:26,9830,597098148,switch,choice3,0,0,1,26,4278,7133.884615,185481,SW9.png,sand_t.png,SW9.png,SW8.png,SW6.png,SW7.png,SW1.png,SW11.png,729524
40620,21:02:26,9830,597098148,choice,choice1,1,0,0,27,5041,7056.407407,190523,SW9.png,crisps_t.png,C5.png,C7.png,C3.png,C2.png,C11.png,C12.png,735122
40620,21:02:26,9830,597098148,choice,choice1,1,0,0,28,5583,7003.821429,196107,SW9.png,soup_t.png,S12.png,S5.png,S9.png,S3.png,S6.png,S13.png,741262
40620,21:02:26,9830,597098148,choice,choice2,0,0,1,29,3050,6867.517241,199158,SW9.png,yog_t.png,Y12.png,Y8.png,Y2.png,Y11.png,Y10.png,Y3.png,744878
40620,21:02:26,9830,597098148,switch,choice2,0,0,1,29,3050,6867.517241,199158,Y12.png,yog_t.png,Y12.png,Y8.png,Y2.png,Y11.png,Y10.png,Y3.png,747053
40620,21:02:26,9830,597098148,choice,choice2,0,0,1,30,3401,6752,202560,Y12.png,yog_t.png,Y1.png,Y8.png,Y3.png,Y12.png,Y10.png,Y2.png,751010
40620,21:02:26,9830,597098148,switch,choice2,0,0,1,30,3401,6752,202560,Y1.png,yog_t.png,Y1.png,Y8.png,Y3.png,Y12.png,Y10.png,Y2.png,753384
40820,12:43:58,9701,329423207,choice,choice1,1,0,0,1,42844,42845,42845,RM11.png,crisps_t.png,C10.png,C4.png,C3.png,C2.png,C9.png,C6.png,141787
40820,12:43:58,9701,329423207,choice,choice2,0,0,1,2,51222,47034,94068,RM11.png,soup_t.png,S12.png,S5.png,S9.png,S13.png,S3.png,S7.png,193564
40820,12:43:58,9701,329423207,switch,choice2,0,0,1,2,51222,47034,94068,S12.png,soup_t.png,S12.png,S5.png,S9.png,S13.png,S3.png,S7.png,211712
40820,12:43:58,9701,329423207,choice,choice1,1,0,0,3,44051,46040,138120,S12.png,sand_t.png,SW11.png,SW10.png,SW6.png,SW7.png,SW1.png,SW8.png,256326
40820,12:43:58,9701,329423207,choice,choice2,0,0,1,4,41122,44810.75,179243,S12.png,sand_t.png,SW9.png,SW4.png,SW6.png,SW7.png,SW3.png,SW5.png,297996
40820,12:43:58,9701,329423207,switch,choice2,0,0,1,4,41122,44810.75,179243,SW9.png,sand_t.png,SW9.png,SW4.png,SW6.png,SW7.png,SW3.png,SW5.png,302223
40820,12:43:58,9701,329423207,choice,choice3,0,0,1,5,28366,41522,207610,SW9.png,crisps_t.png,C10.png,C8.png,C5.png,C9.png,C2.png,C6.png,331140
40820,12:43:58,9701,329423207,switch,choice3,0,1,1,5,28366,41522,207610,C10.png,crisps_t.png,C10.png,C8.png,C5.png,C9.png,C2.png,C6.png,337540
40820,12:43:58,9701,329423207,choice,choice2,0,1,1,6,21683,38215.66667,229294,C10.png,yog_t.png,Y13.png,Y6.png,Y12.png,Y10.png,Y2.png,Y3.png,359773
40820,12:43:58,9701,329423207,switch,choice2,0,1,1,6,21683,38215.66667,229294,Y13.png,yog_t.png,Y13.png,Y6.png,Y12.png,Y10.png,Y2.png,Y3.png,365121
40820,12:43:58,9701,329423207,choice,choice1,1,1,0,7,25136,36347.28571,254431,Y13.png,yog_t.png,Y1.png,Y9.png,Y10.png,Y12.png,Y2.png,Y3.png,390809
40820,12:43:58,9701,329423207,choice,choice3,0,1,1,8,25239,34958.875,279671,Y13.png,cereal_t.png,BC1.png,BC12.png,BC2.png,BC4.png,BC8.png,BC5.png,416595
40820,12:43:58,9701,329423207,switch,choice3,0,0,1,8,25239,34958.875,279671,BC1.png,cereal_t.png,BC1.png,BC12.png,BC2.png,BC4.png,BC8.png,BC5.png,420298
40820,12:43:58,9701,329423207,choice,choice1,1,0,0,9,23243,33657.22222,302915,BC1.png,soup_t.png,S12.png,S6.png,S9.png,S1.png,S4.png,S3.png,444099
40820,12:43:58,9701,329423207,choice,choice6,0,0,1,10,23062,32597.8,325978,BC1.png,soup_t.png,S12.png,S13.png,S9.png,S7.png,S3.png,S4.png,467717
40820,12:43:58,9701,329423207,switch,choice6,0,0,1,10,23062,32597.8,325978,S12.png,soup_t.png,S12.png,S13.png,S9.png,S7.png,S3.png,S4.png,480742
40820,12:43:58,9701,329423207,choice,choice1,1,0,0,11,23213,31744.72727,349192,S12.png,yog_t.png,Y1.png,Y8.png,Y3.png,Y12.png,Y10.png,Y2.png,504501
40820,12:43:58,9701,329423207,choice,choice4,0,0,1,12,24630,31151.91667,373823,S12.png,ready_t.png,RM4.png,RM12.png,RM5.png,RM9.png,RM13.png,RM8.png,529685
40820,12:43:58,9701,329423207,switch,choice4,0,0,1,12,24630,31151.91667,373823,RM4.png,ready_t.png,RM4.png,RM12.png,RM5.png,RM9.png,RM13.png,RM8.png,533366
40820,12:43:58,9701,329423207,choice,choice6,0,0,1,13,37327,31627,411151,RM4.png,sand_t.png,SW9.png,SW8.png,SW6.png,SW7.png,SW1.png,SW11.png,571248
40820,12:43:58,9701,329423207,switch,choice6,0,0,1,13,37327,31627,411151,SW9.png,sand_t.png,SW9.png,SW8.png,SW6.png,SW7.png,SW1.png,SW11.png,573615
40820,12:43:58,9701,329423207,choice,choice2,0,0,1,14,12472,30258.85714,423624,SW9.png,cereal_t.png,BC11.png,BC3.png,BC2.png,BC9.png,BC8.png,BC1.png,586642
40820,12:43:58,9701,329423207,switch,choice2,0,0,1,14,12472,30258.85714,423624,BC11.png,cereal_t.png,BC11.png,BC3.png,BC2.png,BC9.png,BC8.png,BC1.png,589267
40820,12:43:58,9701,329423207,choice,choice2,0,0,1,15,28806,30162.06667,452431,BC11.png,soup_t.png,S12.png,S5.png,S9.png,S3.png,S6.png,S13.png,618626
40820,12:43:58,9701,329423207,switch,choice2,0,1,1,15,28806,30162.06667,452431,S12.png,soup_t.png,S12.png,S5.png,S9.png,S3.png,S6.png,S13.png,624010
40820,12:43:58,9701,329423207,breaktime,choice2,0,1,1,15,28806,30162.06667,452431,S12.png,soup_t.png,S12.png,S5.png,S9.png,S3.png,S6.png,S13.png,633501
40820,12:43:58,9701,329423207,choice,choice1,1,1,0,16,21652,29630.25,474084,S12.png,soup_t.png,S5.png,S9.png,S6.png,S10.png,S13.png,S3.png,655705
40820,12:43:58,9701,329423207,choice,choice2,0,1,1,17,25087,29363.05882,499172,S12.png,cereal_t.png,BC1.png,BC3.png,BC2.png,BC5.png,BC8.png,BC9.png,681339
40820,12:43:58,9701,329423207,switch,choice2,0,0,1,17,25087,29363.05882,499172,BC1.png,cereal_t.png,BC1.png,BC3.png,BC2.png,BC5.png,BC8.png,BC9.png,683817
40820,12:43:58,9701,329423207,choice,choice3,0,0,1,18,31716,29493.83333,530889,BC1.png,cereal_t.png,BC9.png,BC12.png,BC2.png,BC6.png,BC5.png,BC8.png,716085
40820,12:43:58,9701,329423207,switch,choice3,0,0,1,18,31716,29493.83333,530889,BC9.png,cereal_t.png,BC9.png,BC12.png,BC2.png,BC6.png,BC5.png,BC8.png,718201
40820,12:43:58,9701,329423207,choice,choice4,0,0,1,19,28078,29419.36842,558968,BC9.png,ready_t.png,RM11.png,RM1.png,RM5.png,RM7.png,RM13.png,RM2.png,746830
40820,12:43:58,9701,329423207,switch,choice4,0,0,1,19,28078,29419.36842,558968,RM11.png,ready_t.png,RM11.png,RM1.png,RM5.png,RM7.png,RM13.png,RM2.png,749269
40820,12:43:58,9701,329423207,choice,choice1,1,0,0,20,28021,29349.5,586990,RM11.png,crisps_t.png,C5.png,C7.png,C3.png,C2.png,C11.png,C12.png,777839
40820,12:43:58,9701,329423207,choice,choice1,1,0,0,21,9186,28389.38095,596177,RM11.png,crisps_t.png,C10.png,C4.png,C3.png,C6.png,C2.png,C7.png,787587
40820,12:43:58,9701,329423207,choice,choice2,0,0,1,22,32865,28592.86364,629043,RM11.png,yog_t.png,Y12.png,Y8.png,Y2.png,Y11.png,Y10.png,Y3.png,820999
40820,12:43:58,9701,329423207,switch,choice2,0,1,1,22,32865,28592.86364,629043,Y12.png,yog_t.png,Y12.png,Y8.png,Y2.png,Y11.png,Y10.png,Y3.png,828299
40820,12:43:58,9701,329423207,choice,choice2,0,1,1,23,31669,28726.65217,660713,Y12.png,crisps_t.png,C7.png,C4.png,C3.png,C12.png,C6.png,C9.png,860519
40820,12:43:58,9701,329423207,switch,choice2,0,1,1,23,31669,28726.65217,660713,C7.png,crisps_t.png,C7.png,C4.png,C3.png,C12.png,C6.png,C9.png,867155
40820,12:43:58,9701,329423207,choice,choice2,0,1,1,24,36998,29071.33333,697712,C7.png,sand_t.png,SW9.png,SW4.png,SW6.png,SW7.png,SW8.png,SW11.png,904698
40820,12:43:58,9701,329423207,switch,choice2,0,0,1,24,36998,29071.33333,697712,SW9.png,sand_t.png,SW9.png,SW4.png,SW6.png,SW7.png,SW8.png,SW11.png,907154
40820,12:43:58,9701,329423207,choice,choice1,1,0,0,25,15188,28516.04,712901,SW9.png,yog_t.png,Y4.png,Y8.png,Y3.png,Y2.png,Y10.png,Y11.png,922887
40820,12:43:58,9701,329423207,choice,choice1,1,0,0,26,15087,27999.57692,727989,SW9.png,cereal_t.png,BC11.png,BC3.png,BC2.png,BC12.png,BC8.png,BC1.png,938536
40820,12:43:58,9701,329423207,choice,choice3,0,0,1,27,13794,27473.48148,741784,SW9.png,sand_t.png,SW9.png,SW3.png,SW6.png,SW7.png,SW1.png,SW10.png,952876
40820,12:43:58,9701,329423207,switch,choice3,0,0,1,27,13794,27473.48148,741784,SW9.png,sand_t.png,SW9.png,SW3.png,SW6.png,SW7.png,SW1.png,SW10.png,957395
40820,12:43:58,9701,329423207,choice,choice4,0,0,1,28,17397,27113.64286,759182,SW9.png,ready_t.png,RM11.png,RM1.png,RM5.png,RM8.png,RM13.png,RM2.png,975346
40820,12:43:58,9701,329423207,switch,choice4,0,0,1,28,17397,27113.64286,759182,RM11.png,ready_t.png,RM11.png,RM1.png,RM5.png,RM8.png,RM13.png,RM2.png,977036
40820,12:43:58,9701,329423207,choice,choice4,0,0,1,29,25154,27046.10345,784337,RM11.png,ready_t.png,RM11.png,RM1.png,RM5.png,RM7.png,RM13.png,RM2.png,1002736
40820,12:43:58,9701,329423207,switch,choice4,0,0,1,29,25154,27046.10345,784337,RM11.png,ready_t.png,RM11.png,RM1.png,RM5.png,RM7.png,RM13.png,RM2.png,1006228
40820,12:43:58,9701,329423207,choice,choice2,0,0,1,30,16638,26699.2,800976,RM11.png,sand_t.png,SW9.png,SW4.png,SW6.png,SW7.png,SW3.png,SW5.png,1023419
40820,12:43:58,9701,329423207,switch,choice2,0,0,1,30,16638,26699.2,800976,SW9.png,sand_t.png,SW9.png,SW4.png,SW6.png,SW7.png,SW3.png,SW5.png,1026766
41320,15:50:27,9815,744185478,choice,choice2,0,0,1,1,7013,7014,7014,RM11.png,sand_t.png,SW9.png,SW4.png,SW6.png,SW7.png,SW3.png,SW5.png,53561
41320,15:50:27,9815,744185478,switch,choice2,0,1,1,1,7013,7014,7014,SW9.png,sand_t.png,SW9.png,SW4.png,SW6.png,SW7.png,SW3.png,SW5.png,58324
41320,15:50:27,9815,744185478,choice,choice3,0,1,1,2,3820,5417.5,10835,SW9.png,sand_t.png,SW9.png,SW8.png,SW6.png,SW7.png,SW1.png,SW11.png,62767
41320,15:50:27,9815,744185478,switch,choice3,0,1,1,2,3820,5417.5,10835,SW9.png,sand_t.png,SW9.png,SW8.png,SW6.png,SW7.png,SW1.png,SW11.png,67171
41320,15:50:27,9815,744185478,choice,choice2,0,1,1,3,7180,6005.333333,18016,SW9.png,soup_t.png,S5.png,S9.png,S6.png,S10.png,S13.png,S3.png,74980
41320,15:50:27,9815,744185478,switch,choice2,0,1,1,3,7180,6005.333333,18016,S5.png,soup_t.png,S5.png,S9.png,S6.png,S10.png,S13.png,S3.png,77000
41320,15:50:27,9815,744185478,choice,choice4,0,1,1,4,4949,5741.5,22966,S5.png,ready_t.png,RM11.png,RM1.png,RM5.png,RM8.png,RM13.png,RM2.png,82564
41320,15:50:27,9815,744185478,switch,choice4,0,1,1,4,4949,5741.5,22966,RM11.png,ready_t.png,RM11.png,RM1.png,RM5.png,RM8.png,RM13.png,RM2.png,85163
41320,15:50:27,9815,744185478,choice,choice2,0,1,1,5,3952,5383.8,26919,RM11.png,yog_t.png,Y12.png,Y8.png,Y2.png,Y11.png,Y10.png,Y3.png,89744
41320,15:50:27,9815,744185478,switch,choice2,0,0,1,5,3952,5383.8,26919,Y12.png,yog_t.png,Y12.png,Y8.png,Y2.png,Y11.png,Y10.png,Y3.png,91744
41320,15:50:27,9815,744185478,choice,choice1,1,0,0,6,3855,5129.166667,30775,Y12.png,yog_t.png,Y4.png,Y8.png,Y3.png,Y2.png,Y10.png,Y11.png,96223
41320,15:50:27,9815,744185478,choice,choice6,0,0,1,7,8187,5566.142857,38963,Y12.png,sand_t.png,SW9.png,SW4.png,SW6.png,SW7.png,SW8.png,SW11.png,105025
41320,15:50:27,9815,744185478,switch,choice6,0,1,1,7,8187,5566.142857,38963,SW9.png,sand_t.png,SW9.png,SW4.png,SW6.png,SW7.png,SW8.png,SW11.png,108653
41320,15:50:27,9815,744185478,choice,choice1,1,1,0,8,4223,5398.375,43187,SW9.png,yog_t.png,Y1.png,Y8.png,Y3.png,Y12.png,Y10.png,Y2.png,113491
41320,15:50:27,9815,744185478,choice,choice2,0,1,1,9,5089,5364.111111,48277,SW9.png,cereal_t.png,BC1.png,BC3.png,BC2.png,BC5.png,BC8.png,BC9.png,119208
41320,15:50:27,9815,744185478,switch,choice2,0,1,1,9,5089,5364.111111,48277,BC1.png,cereal_t.png,BC1.png,BC3.png,BC2.png,BC5.png,BC8.png,BC9.png,122071
41320,15:50:27,9815,744185478,choice,choice4,0,1,1,10,2347,5062.5,50625,BC1.png,ready_t.png,RM4.png,RM11.png,RM5.png,RM9.png,RM2.png,RM12.png,125032
41320,15:50:27,9815,744185478,switch,choice4,0,1,1,10,2347,5062.5,50625,RM4.png,ready_t.png,RM4.png,RM11.png,RM5.png,RM9.png,RM2.png,RM12.png,126469
41320,15:50:27,9815,744185478,choice,choice1,1,1,0,11,4327,4995.727273,54953,RM4.png,soup_t.png,S12.png,S13.png,S9.png,S7.png,S3.png,S4.png,131411
41320,15:50:27,9815,744185478,choice,choice2,0,1,1,12,5669,5051.916667,60623,RM4.png,cereal_t.png,BC11.png,BC3.png,BC2.png,BC12.png,BC8.png,BC1.png,137705
41320,15:50:27,9815,744185478,switch,choice2,0,1,1,12,5669,5051.916667,60623,BC11.png,cereal_t.png,BC11.png,BC3.png,BC2.png,BC12.png,BC8.png,BC1.png,140684
41320,15:50:27,9815,744185478,choice,choice1,1,1,0,13,10086,5439.230769,70710,BC11.png,sand_t.png,SW11.png,SW10.png,SW6.png,SW7.png,SW1.png,SW8.png,151391
41320,15:50:27,9815,744185478,choice,choice3,0,1,1,14,4414,5366.071429,75125,BC11.png,crisps_t.png,C7.png,C4.png,C3.png,C12.png,C6.png,C9.png,156418
41320,15:50:27,9815,744185478,switch,choice3,0,1,1,14,4414,5366.071429,75125,C7.png,crisps_t.png,C7.png,C4.png,C3.png,C12.png,C6.png,C9.png,158588
41320,15:50:27,9815,744185478,choice,choice1,1,1,0,15,5837,5397.533333,80963,C7.png,soup_t.png,S12.png,S5.png,S9.png,S3.png,S6.png,S13.png,165041
41320,15:50:27,9815,744185478,breaktime,choice1,1,1,0,15,5837,5397.533333,80963,C7.png,soup_t.png,S12.png,S5.png,S9.png,S3.png,S6.png,S13.png,166435
41320,15:50:27,9815,744185478,choice,choice2,0,1,1,16,8164,5570.5,89128,C7.png,yog_t.png,Y13.png,Y6.png,Y12.png,Y10.png,Y2.png,Y3.png,175220
41320,15:50:27,9815,744185478,switch,choice2,0,1,1,16,8164,5570.5,89128,Y13.png,yog_t.png,Y13.png,Y6.png,Y12.png,Y10.png,Y2.png,Y3.png,176806
41320,15:50:27,9815,744185478,choice,choice1,1,1,0,17,9735,5815.529412,98864,Y13.png,soup_t.png,S12.png,S6.png,S9.png,S1.png,S4.png,S3.png,187159
41320,15:50:27,9815,744185478,choice,choice1,1,1,0,18,6133,5833.222222,104998,Y13.png,crisps_t.png,C10.png,C4.png,C3.png,C2.png,C9.png,C6.png,193907
41320,15:50:27,9815,744185478,choice,choice4,0,1,1,19,4090,5741.526316,109089,Y13.png,ready_t.png,RM4.png,RM12.png,RM5.png,RM9.png,RM13.png,RM8.png,198614
41320,15:50:27,9815,744185478,switch,choice4,0,1,1,19,4090,5741.526316,109089,RM4.png,ready_t.png,RM4.png,RM12.png,RM5.png,RM9.png,RM13.png,RM8.png,200585
41320,15:50:27,9815,744185478,choice,choice3,0,1,1,20,3733,5641.15,112823,RM4.png,crisps_t.png,C10.png,C8.png,C5.png,C9.png,C2.png,C6.png,204939
41320,15:50:27,9815,744185478,switch,choice3,0,1,1,20,3733,5641.15,112823,C10.png,crisps_t.png,C10.png,C8.png,C5.png,C9.png,C2.png,C6.png,207202
41320,15:50:27,9815,744185478,choice,choice1,1,1,0,21,1549,5446.333333,114373,C10.png,crisps_t.png,C10.png,C4.png,C3.png,C6.png,C2.png,C7.png,209385
41320,15:50:27,9815,744185478,choice,choice4,0,1,1,22,9252,5619.363636,123626,C10.png,ready_t.png,RM11.png,RM1.png,RM5.png,RM7.png,RM13.png,RM2.png,219278
41320,15:50:27,9815,744185478,switch,choice4,0,1,1,22,9252,5619.363636,123626,RM11.png,ready_t.png,RM11.png,RM1.png,RM5.png,RM7.png,RM13.png,RM2.png,221095
41320,15:50:27,9815,744185478,choice,choice1,1,1,0,23,4010,5549.434783,127637,RM11.png,yog_t.png,Y1.png,Y9.png,Y10.png,Y12.png,Y2.png,Y3.png,225718
41320,15:50:27,9815,744185478,choice,choice3,0,1,1,24,3020,5444.083333,130658,RM11.png,cereal_t.png,BC9.png,BC12.png,BC2.png,BC6.png,BC5.png,BC8.png,229362
41320,15:50:27,9815,744185478,switch,choice3,0,0,1,24,3020,5444.083333,130658,BC9.png,cereal_t.png,BC9.png,BC12.png,BC2.png,BC6.png,BC5.png,BC8.png,231898
41320,15:50:27,9815,744185478,choice,choice2,0,0,1,25,2698,5334.28,133357,BC9.png,cereal_t.png,BC1.png,BC12.png,BC2.png,BC4.png,BC8.png,BC5.png,235224
41320,15:50:27,9815,744185478,switch,choice2,0,1,1,25,2698,5334.28,133357,BC1.png,cereal_t.png,BC1.png,BC12.png,BC2.png,BC4.png,BC8.png,BC5.png,237147
41320,15:50:27,9815,744185478,choice,choice3,0,1,1,26,1495,5186.653846,134853,BC1.png,cereal_t.png,BC11.png,BC3.png,BC2.png,BC9.png,BC8.png,BC1.png,239254
41320,15:50:27,9815,744185478,switch,choice3,0,1,1,26,1495,5186.653846,134853,BC11.png,cereal_t.png,BC11.png,BC3.png,BC2.png,BC9.png,BC8.png,BC1.png,241573
41320,15:50:27,9815,744185478,choice,choice3,0,1,1,27,6721,5243.518519,141575,BC11.png,soup_t.png,S12.png,S5.png,S9.png,S13.png,S3.png,S7.png,248915
41320,15:50:27,9815,744185478,switch,choice3,0,1,1,27,6721,5243.518519,141575,S12.png,soup_t.png,S12.png,S5.png,S9.png,S13.png,S3.png,S7.png,250290
41320,15:50:27,9815,744185478,choice,choice4,0,1,1,28,3103,5167.107143,144679,S12.png,ready_t.png,RM4.png,RM12.png,RM5.png,RM9.png,RM13.png,RM8.png,254013
41320,15:50:27,9815,744185478,switch,choice4,0,1,1,28,3103,5167.107143,144679,RM4.png,ready_t.png,RM4.png,RM12.png,RM5.png,RM9.png,RM13.png,RM8.png,255943
41320,15:50:27,9815,744185478,choice,choice2,0,1,1,29,3069,5094.793103,147749,RM4.png,yog_t.png,Y13.png,Y6.png,Y12.png,Y10.png,Y2.png,Y3.png,259630
41320,15:50:27,9815,744185478,switch,choice2,0,1,1,29,3069,5094.793103,147749,Y13.png,yog_t.png,Y13.png,Y6.png,Y12.png,Y10.png,Y2.png,Y3.png,261454
41320,15:50:27,9815,744185478,choice,choice3,0,1,1,30,6623,5145.766667,154373,Y13.png,sand_t.png,SW9.png,SW8.png,SW6.png,SW7.png,SW1.png,SW11.png,268722
41320,15:50:27,9815,744185478,switch,choice3,0,1,1,30,6623,5145.766667,154373,SW9.png,sand_t.png,SW9.png,SW8.png,SW6.png,SW7.png,SW1.png,SW11.png,269954
41920,11:29:51,9871,376098278,choice,choice3,0,0,1,1,17231,17232,17232,RM11.png,sand_t.png,SW9.png,SW3.png,SW6.png,SW7.png,SW1.png,SW10.png,201827
41920,11:29:51,9871,376098278,switch,choice3,0,1,1,1,17231,17232,17232,SW9.png,sand_t.png,SW9.png,SW3.png,SW6.png,SW7.png,SW1.png,SW10.png,206046
41920,11:29:51,9871,376098278,choice,choice1,1,1,0,2,29696,23464.5,46929,SW9.png,crisps_t.png,C10.png,C4.png,C3.png,C6.png,C2.png,C7.png,236325
